Time,Accel_X,Accel_Y,Accel_Z
1731762601.047178,-4.790797521972656,2.5330653564453125,-6.854599353027344
1731762601.1025045,-4.759672900390624,2.3032219970703123,-6.806715319824218
1731762601.1596806,-4.836287353515624,2.3870190551757813,-6.892906579589844
1731762601.2164412,-5.142745166015625,2.4588451049804685,-6.864176159667968
1731762601.2717257,-4.7764323120117185,2.403778466796875,-6.845022546386718
1731762601.3270514,-4.8650177734375,2.4756045166015626,-6.770802294921874
1731762601.3822122,-4.924872814941406,2.518700146484375,-6.76122548828125
1731762601.437435,-4.7931917236328125,2.5043349365234375,-6.8402341430664055
1731762601.4926553,-5.173869787597656,2.4756045166015626,-6.79953271484375
1731762601.5478256,-4.841075756835937,2.422932080078125,-6.737283471679687
1731762601.602967,-4.92247861328125,2.442085693359375,-6.825868933105468
1731762601.658076,-5.046977099609375,2.43250888671875,-6.833051538085937
1731762601.7131886,-4.996698864746094,2.4779987182617185,-6.866570361328125
1731762601.7683208,-4.7955859252929685,2.3774422485351563,-6.823474731445312
1731762601.823505,-4.8123453369140625,2.4756045166015626,-6.797138513183594
1731762601.8786557,-4.797980126953124,2.482787121582031,-6.847416748046874
1731762601.9338164,-9.1554271484375,-2.128445275878906,-1.254561669921875
1731762601.9889355,-4.407725256347656,6.8210805297851556,-7.75721337890625
1731762602.044134,6.660669018554687,6.433219860839843,-19.6133
1731762602.099279,-8.616731774902343,3.7229835815429686,-18.902222106933593
1731762602.1544046,19.531897143554687,-4.61602080078125,2.9568390502929685
1731762602.2094922,-17.300501196289062,6.114791040039062,-6.926425402832031
1731762602.2646375,2.1835119140624997,5.990292553710937,0.01915361328125
1731762602.3197153,-13.898340637207031,3.5482068603515624,-3.5577836669921874
1731762602.374838,-2.403778466796875,-2.427720483398437,-1.5873557006835937
1731762602.429993,-11.750741748046874,2.1164742675781247,-4.903325
1731762602.4851706,-5.360617517089843,1.9009961181640624,-5.549759448242187
1731762602.5403037,-10.919953771972656,3.0406361083984375,-3.8666356811523435
1731762602.5953987,-9.411606726074218,1.7621324218749999,-7.7787611938476555
1731762602.6505456,-11.578359228515625,6.196193896484375,-4.80755693359375
1731762602.705707,-8.908824377441405,-1.9680337646484374,-8.904035974121093
1731762602.7608056,-6.021417175292968,5.073313317871094,-5.580884069824219
1731762602.8159692,-7.709329345703124,8.662221606445312,-4.228160131835938
1731762602.8711553,-12.885593334960937,-6.287173559570312,-1.668758557128906
1731762602.9243739,-4.42448466796875,13.781024755859374,-0.1149216796875
1731762602.977555,-6.6151791870117185,3.450044592285156,-0.6967126831054687
1731762603.0308545,-1.2473790649414063,2.748543505859375,0.7110778930664062
1731762603.084041,-8.556876733398436,4.0988732421875,-5.389347937011719
1731762603.137329,-14.482525842285156,0.38786066894531246,-7.613561279296874
1731762603.1906009,-6.6893994384765625,4.187458703613281,-6.1650692749023435
1731762603.2459755,-6.533776330566406,4.857835168457031,-5.868188269042968
1731762603.301246,-11.82975040283203,3.8283284545898435,-10.007762939453125
1731762603.3564754,-10.146626635742187,0.43574470214843747,-5.95677373046875
1731762603.411718,-2.109291662597656,7.50821640625,-2.2361843505859373
1731762603.4669456,-4.218583325195312,3.1675287963867187,1.5227122558593749
1731762603.5221252,-7.510610607910156,3.9049429077148434,1.0390835205078124
1731762603.5774035,-4.386177441406249,3.0693665283203124,2.3582886352539063
1731762603.6325722,-5.106832141113281,4.4005426513671875,-0.7661445312499999
1731762603.6877294,-9.425971936035156,1.7477672119140624,-3.88818349609375
1731762603.7428353,-7.556100439453124,3.9336733276367184,-5.315127685546875
1731762603.7979448,-14.45379542236328,5.482721801757812,-6.677428430175781
1731762603.853184,-9.255983618164063,3.3973721557617185,-5.276820458984375
1731762603.9083195,-9.557653027343749,3.086125939941406,-5.652710119628906
1731762603.9634724,-7.359775903320312,5.073313317871094,-3.361459130859375
1731762604.018619,-5.566518859863281,4.280832568359375,0.4070142822265625
1731762604.073729,-7.745242370605468,5.154716174316406,1.5322890624999999
1731762604.128845,-4.601655590820312,2.5234885498046875,2.212242333984375
1731762604.184031,-7.127538342285156,5.549759448242187,2.2744915771484373
1731762604.2391558,-5.248090039062499,3.833116857910156,2.157175695800781
1731762604.2943418,-6.8210805297851556,3.7325603881835936,-2.003946789550781
1731762604.3494754,-11.654973681640625,3.0980969482421874,-2.5139117431640625
1731762604.4045792,-4.704606262207031,5.197811804199218,-4.4005426513671875
1731762604.459705,-13.623007446289062,-0.086191259765625,-5.686228942871093
1731762604.5148675,-3.746925598144531,4.572925170898437,-4.6639048339843745
1731762604.5700052,-11.722011328125,3.478775012207031,-5.84185205078125
1731762604.6250954,-16.029180114746094,3.603273498535156,-7.994239343261718
1731762604.6803088,-4.747701892089843,5.556942053222656,-4.814739538574218
1731762604.7354474,-3.8235400512695312,3.670311145019531,-0.12689268798828124
1731762604.790599,-9.701305126953125,3.337517114257812,0.12689268798828124
1731762604.8457377,-2.6575638427734374,3.6846763549804686,1.867477294921875
1731762604.9008837,-8.429984045410155,4.347870214843749,2.5809493896484375
1731762604.9560244,-6.191405493164062,5.049371301269531,2.104503259277344
1731762605.0111668,-6.117185241699218,2.693476867675781,0.055066638183593745
1731762605.0662696,-9.129090930175781,4.955997436523437,-2.9089550170898435
1731762605.1213474,-10.295067138671874,1.5275006591796874,-4.7955859252929685
1731762605.1764553,-7.218518005371093,2.6671406494140624,-3.6439749267578123
1731762605.231562,-10.034099157714843,5.68862314453125,-5.877765075683594
1731762605.2866452,-6.773196496582031,-0.18914193115234373,-5.442020373535156
1731762605.341842,-10.357316381835936,5.968744738769531,-5.228936425781249
1731762605.3969398,-12.133814013671874,3.337517114257812,-7.745242370605468
1731762605.4520297,-5.434837768554687,2.3391350219726563,-6.110002636718749
1731762605.5071256,-3.5146880371093747,4.620809204101562,-0.5746083984375
1731762605.5622036,-10.819397302246093,3.1603461914062496,0.584185205078125
1731762605.6173167,-2.221819140625,3.5721488769531247,1.7166425903320313
1731762605.6723769,-9.713276135253906,4.582501977539062,1.4149731811523436
1731762605.727434,-2.442085693359375,4.264073156738281,1.8698714965820311
1731762605.7825797,-11.518504187011718,2.3247698120117186,-1.7669208251953124
1731762605.8376696,-5.834669445800781,3.976768957519531,-3.833116857910156
1731762605.8928375,-11.532869396972655,4.086902233886718,-5.628768103027343
1731762605.9480066,-7.098807922363281,2.473210314941406,-3.612850305175781
1731762606.003174,-4.742913488769531,4.967968444824218,-4.716577270507813
1731762606.0582612,-11.456254943847656,1.3766659545898436,-5.949591125488281
1731762606.1134627,-7.321468676757812,4.335899206542969,-5.482721801757812
1731762606.1668751,-12.411541406249999,1.62805712890625,-7.9272016967773435
1731762606.2202697,-6.459556079101562,4.3071687866210935,-4.355052819824219
1731762606.273611,-4.783614916992187,4.2521021484374995,-1.0917559570312498
1731762606.3269703,-7.9846625366210935,3.5027170288085934,0.02633621826171875
1731762606.3802857,-7.244854223632812,5.092466931152344,0.7350199096679687
1731762606.4336467,-5.3390697021484375,4.199429711914062,1.139639990234375
1731762606.4869933,-4.989516259765625,6.1459156616210935,0.3758896606445312
1731762606.540408,-7.862558251953125,0.8690952026367187,-1.7118541870117185
1731762606.5937366,-9.79946739501953,4.9823336547851556,-4.867411975097656
1731762606.6469522,-7.345410693359375,0.45010991210937495,-3.749319799804687
1731762606.700127,-7.900865478515625,4.977545251464844,-5.425260961914062
1731762606.7534156,-6.253654736328125,1.5035586425781249,-4.678270043945313
1731762606.8066204,-11.322179650878905,4.977545251464844,-6.579266162109374
1731762606.8617465,-7.029376074218749,2.8467057739257813,-5.118803149414062
1731762606.917263,-10.704475622558594,4.062960217285156,-5.588066674804687
1731762606.9726346,-2.001552587890625,3.5218706420898434,-6.121973645019531
1731762607.0278144,-13.172897534179686,3.2800562744140622,-3.383006945800781
1731762607.0830762,-0.5793968017578125,4.881777185058594,-2.1978771240234374
1731762607.138339,-9.016563452148437,5.4779333984375,-0.5770026000976562
1731762607.1937716,-3.9839515624999997,-0.13646949462890623,0.32082302246093747
1731762607.2492213,-3.4356793823242184,6.208164904785156,-0.7948749511718749
1731762607.3047035,-10.620678564453124,0.17956512451171874,-1.9704279663085937
1731762607.3601427,-10.94868419189453,4.944026428222656,-5.7077767578125
1731762607.4154289,-7.544129431152343,4.106055847167968,-6.270414147949219
1731762607.4708433,-7.259219433593749,0.8667010009765624,-6.411672045898437
1731762607.5261953,-10.122684619140625,3.3111808959960936,-6.375759020996093
1731762607.5816014,-9.1554271484375,3.6750995483398436,-6.030993981933594
1731762607.636781,-8.55448253173828,1.455674609375,-4.819527941894531
1731762607.692041,-7.417236743164062,7.709329345703124,-2.233790148925781
1731762607.747209,-5.6024318847656245,0.44532150878906246,0.03591302490234375
1731762607.8023598,-6.414066247558593,4.122815258789062,0.4836287353515625
1731762607.857555,-10.081983190917969,2.8754361938476563,0.49320554199218747
1731762607.912708,-4.975151049804687,5.444414575195312,2.0159177978515626
1731762607.9679322,-6.3709706176757805,3.327940307617187,2.133233679199219
1731762608.0230813,-7.196970190429687,3.299209887695312,-0.9816226806640624
1731762608.0782533,-10.441113439941406,1.5921441040039062,-2.9472622436523435
1731762608.1334167,-8.291120349121094,3.1771056030273437,-3.1124621582031247
1731762608.1885216,-9.332598071289063,2.454056701660156,-2.96881005859375
1731762608.243681,-7.6997525390625,2.980781066894531,-4.3430818115234375
1731762608.299374,-10.256759912109374,1.2210428466796874,-4.522646936035156
1731762608.3546357,-8.183381274414062,2.935291235351562,-4.886565588378906
1731762608.4098282,-11.975796704101562,0.9888052856445312,-5.786785412597656
1731762608.4649508,-7.208941198730468,3.0597897216796874,-4.043806604003906
1731762608.520071,-11.626243261718749,2.2936451904296873,-2.0374656127929685
1731762608.575181,-3.2800562744140622,4.44363828125,0.6536170532226562
1731762608.6302712,-11.176133349609374,2.099714855957031,-0.8738836059570312
1731762608.685385,-7.599196069335937,4.472368701171875,0.5243301635742187
1731762608.7404356,-8.231265307617187,3.1076737548828124,1.4796166259765624
1731762608.7955594,-4.220977526855468,2.7198130859375,2.4301146850585935
1731762608.8507051,-6.141127258300781,4.304774584960938,1.189918225097656
1731762608.9059162,-10.175357055664062,2.3870190551757813,-2.8850130004882812
1731762608.9611137,-9.686939916992188,0.9169792358398436,-3.555389465332031
1731762609.0163298,-9.445125549316407,2.4061726684570313,-3.84987626953125
1731762609.0714703,-6.749254479980468,2.8514941772460936,-4.522646936035156
1731762609.126641,-9.842563024902343,1.68551796875,-5.135562561035156
1731762609.181757,-7.094019519042968,2.89219560546875,-5.305550878906249
1731762609.2368765,-15.116989282226562,3.5410242553710933,-7.108384729003906
1731762609.2920134,-4.065354418945312,-1.4437036010742186,-6.002263562011718
1731762609.347135,-9.45470235595703,9.504980590820312,-0.8738836059570312
1731762609.402276,-2.834734765625,-0.6296750366210937,-0.46686932373046874
1731762609.4574566,-8.43956085205078,5.801150622558594,0.6368576416015624
1731762609.5125523,-6.694187841796874,2.1499930908203124,0.34715924072265625
1731762609.5676668,-4.129997863769531,4.493916516113281,0.3136404174804687
1731762609.6228209,-9.885658654785155,1.8219874633789062,-2.6910826660156246
1731762609.6779156,-10.149020837402343,3.5673604736328124,-3.1675287963867187
1731762609.733054,-6.710947253417968,4.201823913574218,-3.4620156005859375
1731762609.7882564,-8.413224633789062,2.2098481323242187,-5.288791467285156
1731762609.8433595,-7.6087728759765625,2.020706201171875,-5.604826086425781
1731762609.8985028,-7.369352709960937,2.978386865234375,-5.851428857421874
1731762609.9536297,-10.907982763671875,4.223371728515625,-7.091625317382812
1731762610.00876,-9.287108239746093,0.0526724365234375,-5.303156677246093
1731762610.063835,-4.584896179199219,5.4899044067382805,-2.4756045166015626
1731762610.1189432,-8.128314636230469,1.915361328125,-2.896984008789062
1731762610.1741734,-7.529764221191406,3.8283284545898435,-0.9935936889648437
1731762610.2292745,-5.159504577636718,4.977545251464844,-0.9337386474609375
1731762610.284362,-9.5384994140625,3.4931402221679684,-1.2617442749023438
1731762610.3376002,-5.250484240722656,2.1906945190429687,-1.6160861206054686
1731762610.390766,-6.672640026855468,3.2321722412109373,-3.4524387939453125
1731762610.443939,-9.179369165039063,2.408566870117187,-5.91846650390625
1731762610.4970958,-8.343792785644531,2.437297290039062,-5.561730456542969
1731762610.5503001,-10.46984385986328,4.398148449707031,-6.256048937988281
1731762610.6034791,-7.580042456054687,1.8698714965820311,-6.445190869140625
1731762610.6566522,-7.256825231933593,2.588131994628906,-5.111620544433594
1731762610.7098446,-5.80354482421875,4.742913488769531,-4.04141240234375
1731762610.7630386,-8.8489693359375,2.7078420776367187,-3.9240965209960934
1731762610.8162396,-8.298302954101562,3.8762124877929685,-3.1387983764648437
1731762610.8694224,-7.37414111328125,5.257666845703125,-1.9847931762695312
1731762610.9226012,-6.236895324707031,3.5529952636718747,-1.0510545288085937
1731762610.975768,-7.769184387207031,2.7269956909179687,-0.37828386230468747
1731762611.02894,-5.351040710449219,4.721365673828124,-0.45489831542968745
1731762611.0820968,-6.196193896484375,3.7924154296875,-0.9720458740234375
1731762611.1352735,-7.809885815429687,2.5522189697265625,-3.6463691284179687
1731762611.1884592,-8.798691101074219,2.4444798950195312,-4.7884033203125
1731762611.2416594,-8.202534887695313,4.601655590820312,-4.991910461425781
1731762611.2948167,-6.148309863281249,3.612850305175781,-5.7077767578125
1731762611.3479586,-4.304774584960938,3.327940307617187,-9.066841687011719
1731762611.4010994,-11.240776794433593,1.8124106567382812,-7.230489013671875
1731762611.4543183,-7.81467421875,4.264073156738281,-7.819462622070312
1731762611.507513,-7.311891870117187,4.2137949218749995,-5.923254907226562
1731762611.560736,-7.4579381713867186,1.458068811035156,-5.106832141113281
1731762611.6158192,-6.552929943847656,4.805162731933594,-2.9927520751953125
1731762611.6709788,-5.461173986816406,4.905719201660156,-0.7134720947265625
1731762611.7260945,-7.359775903320312,3.861847277832031,-0.38786066894531246
1731762611.781215,-6.210559106445312,2.291250988769531,-0.06703764648437499
1731762611.8362994,-5.590460876464843,4.802768530273437,-0.74699091796875
1731762611.8914292,-6.564900952148437,2.1835119140624997,-3.4428619873046875
1731762611.9466062,-9.758765966796874,3.246537451171875,-4.687846850585937
1731762612.0017881,-6.299144567871093,4.6830584472656245,-5.760449194335937
1731762612.0569315,-7.220912207031249,2.138022082519531,-7.117961535644531
1731762612.1121726,-7.987056738281249,2.1883003173828124,-7.908048083496094
1731762612.1672862,-7.800309008789062,3.7325603881835936,-7.5345526245117185
1731762612.2223725,-5.798756420898437,3.066972326660156,-6.421248852539062
1731762612.2774506,-10.529698901367187,4.012681982421875,-6.986280444335937
1731762612.3325696,-6.342240197753906,0.842758984375,-5.849034655761718
1731762612.387715,-5.6024318847656245,6.488286499023437,-2.8227637573242186
1731762612.442854,-6.6319385986328125,3.423708374023437,-1.4987702392578124
1731762612.4979436,-7.44357296142578,1.687912170410156,1.0486603271484374
1731762612.553402,-4.529829541015625,4.297591979980469,1.5251064575195312
1731762612.608643,-4.398148449707031,4.065354418945312,0.13168109130859373
1731762612.6638136,-6.210559106445312,1.0893617553710937,-5.427655163574219
1731762612.71895,-9.85692823486328,3.778050219726562,-7.4603323730468745
1731762612.7744226,-7.369352709960937,3.6655227416992187,-7.922413293457031
1731762612.8297555,-11.698069311523437,6.5026517089843745,-5.66946953125
1731762612.8850157,-7.639897497558593,5.214571215820312,-8.207323291015625
1731762612.9401984,-11.259930407714844,2.6623522460937497,-8.01818135986328
1731762612.9953084,-3.7804444213867185,0.7015010864257812,-6.157886669921875
1731762613.0510852,-6.4834980957031245,4.422090466308593,-3.5529952636718747
1731762613.1062448,-9.217676391601563,3.8379052612304685,-2.1930887207031247
1731762613.1614153,-4.838681555175781,2.81558115234375,0.06464344482421874
1731762613.2165987,-12.528857287597656,2.480392919921875,1.8770541015625
1731762613.271716,2.272097375488281,4.201823913574218,3.7014357666015623
1731762613.3268628,-8.425195642089843,2.1835119140624997,0.8116343627929687
1731762613.3820453,-5.1523219726562495,1.2832920898437499,-0.7326257080078125
1731762613.437184,-11.664550488281249,4.723759875488281,-5.4707507934570305
1731762613.4922986,-7.934384301757812,0.15083470458984374,-6.296750366210937
1731762613.547407,-10.31661495361328,3.6176387084960937,-6.150704064941406
1731762613.6025004,-10.625466967773438,3.8235400512695312,-7.671022119140624
1731762613.6575801,-7.924807495117187,-1.01514150390625,-6.229712719726562
1731762613.7127528,-11.767501159667969,5.363011718749999,-3.6487633300781246
1731762613.7679877,-3.227383837890625,1.867477294921875,-1.7166425903320313
1731762613.8231676,-8.626308581542968,7.271190441894531,0.967257470703125
1731762613.8783255,-6.68461103515625,1.8507178833007811,1.5131354492187499
1731762613.9316843,-3.2441432495117186,4.417302062988281,2.7557261108398436
1731762613.9849677,-2.916137622070312,3.9719805541992184,0.833182177734375
1731762614.0383646,-9.402029919433593,4.781220715332031,-3.5098996337890624
1731762614.0917573,-7.9655089233398435,1.005564697265625,-6.883329772949218
1731762614.1451726,-9.452308154296874,1.6998831787109374,-7.71890615234375
1731762614.198553,-13.153743920898437,3.995922570800781,-7.979874133300781
1731762614.2519522,-6.131550451660156,0.7996633544921875,-6.766013891601562
1731762614.3053339,-9.095572106933593,4.57771357421875,-6.964732629394531
1731762614.3587322,-12.102689392089843,3.318363500976562,-5.298368273925781
1731762614.412113,-2.91134921875,0.430956298828125,-0.9720458740234375
1731762614.4654434,-5.480327600097656,6.732495068359374,2.3726538452148436
1731762614.5188193,-6.962338427734375,4.661510632324219,-0.3854664672851562
1731762614.572187,-4.647145422363281,0.74699091796875,2.185906115722656
1731762614.6255088,-7.000645654296875,4.414907861328125,-3.2249896362304686
1731762614.6788685,-9.543287817382812,4.479551306152343,-4.039018200683594
1731762614.732181,-7.4770917846679685,0.9121908325195311,-7.137115148925781
1731762614.7860022,-10.24718310546875,0.97683427734375,-6.062118603515625
1731762614.8393562,-5.5258174316406246,3.871424084472656,-5.379771130371093
1731762614.8926213,-7.637503295898437,3.086125939941406,-6.404489440917969
1731762614.9461575,-12.579135522460938,4.132392065429687,-8.489839086914062
1731762614.9995034,-9.79946739501953,-1.1563994018554686,-5.616797094726562
1731762615.0528467,-7.352593298339843,5.027823486328125,-2.0829554443359375
1731762615.1062315,-1.867477294921875,5.851428857421874,-0.28969840087890625
1731762615.159549,-8.451531860351562,0.59376201171875,2.6719290527343746
1731762615.2129054,-8.432378247070313,3.883395092773437,1.0271125122070313
1731762615.2662632,-2.473210314941406,4.398148449707031,0.6296750366210937
1731762615.3197854,-6.696582043457031,3.9911341674804683,-0.8762778076171874
1731762615.3731744,-7.44357296142578,3.0837317382812497,-6.548141540527343
1731762615.4265263,-11.415553515625,0.9648632690429687,-6.672640026855468
1731762615.4799855,-7.9272016967773435,2.9735984619140625,-5.700594152832031
1731762615.5333278,-6.603208178710937,5.209782812499999,-5.947196923828125
1731762615.5867248,-7.742848168945312,2.176329309082031,-6.957550024414062
1731762615.6401138,-15.140931298828123,4.134786267089844,-8.276755139160155
1731762615.693497,-4.7884033203125,0.11252747802734374,-6.440402465820312
1731762615.7468703,-3.399766357421875,6.806715319824218,-2.5665841796874997
1731762615.8002043,0.2442085693359375,1.2904746948242187,0.8595183959960937
1731762615.85356,-13.385981481933593,4.129997863769531,-0.05746083984375
1731762615.9069712,-4.687846850585937,3.411737365722656,0.5626373901367188
1731762615.960356,-5.856217260742187,4.4196962646484375,0.4572925170898437
1731762616.0137136,-3.9695863525390624,2.806004345703125,-3.42849677734375
1731762616.067078,-10.17056865234375,5.513846423339843,-7.81467421875
1731762616.1204035,-11.01332763671875,0.45968671875,-8.02536396484375
1731762616.1737697,-5.6024318847656245,2.8275521606445313,-6.325480786132812
1731762616.2271445,-3.976768957519531,4.256890551757812,-5.533000036621093
1731762616.2804868,-11.022904443359375,3.883395092773437,-7.738059765625
1731762616.3337283,-13.7906015625,2.142810485839844,-8.657433203124999
1731762616.386887,-2.8107927490234372,1.7166425903320313,-6.586448767089843
1731762616.440066,-3.268085266113281,5.183446594238281,-0.19871873779296872
1731762616.493223,-7.1778165771484375,4.254496350097656,-0.24660277099609373
1731762616.546373,-8.259995727539062,1.7788918334960937,0.718260498046875
1731762616.5995553,-4.759672900390624,5.303156677246093,1.5801730957031248
1731762616.6527734,-4.893748193359374,3.5386300537109374,-1.0438719238281249
1731762616.7059717,-7.165845568847656,2.8467057739257813,-4.80755693359375
1731762616.7591736,-10.077194787597655,3.622427111816406,-7.0078282592773435
1731762616.8123422,-8.904035974121093,1.5107412475585937,-8.219294299316406
1731762616.8655293,-9.641450085449218,4.319139794921875,-7.582436657714843
1731762616.9187083,-6.581660363769531,2.798821740722656,-7.857769848632812
1731762616.9718459,-5.6958057495117185,1.8507178833007811,-6.232106921386718
1731762617.024993,-15.751452722167969,4.6998178588867185,-6.87614716796875
1731762617.0781536,-0.679953271484375,-1.936909143066406,-1.4867992309570313
1731762617.1313004,-6.675034228515624,9.011775048828124,1.3670891479492187
1731762617.184503,-8.355763793945313,2.6791116577148437,1.0941501586914062
1731762617.2396142,-6.320692382812499,2.863465185546875,0.63206923828125
1731762617.294771,-5.398924743652343,4.8650177734375,0.42377369384765623
1731762617.3499215,-3.246537451171875,3.404554760742187,-2.5953145996093747
1731762617.4051054,-9.557653027343749,3.5506010620117183,-7.663839514160156
1731762617.4602845,-10.17056865234375,0.852335791015625,-7.292738256835937
1731762617.5154507,-7.472303381347656,3.859453076171875,-6.344634399414062
1731762617.5706038,-7.132326745605468,4.2305543334960936,-6.806715319824218
1731762617.6257355,-7.9272016967773435,1.2928688964843749,-7.117961535644531
1731762617.681239,-12.227187878417968,4.046200805664062,-6.347028601074219
1731762617.7366898,-3.9145197143554684,2.6479870361328124,-3.4931402221679684
1731762617.7919812,-5.446808776855469,2.731784094238281,-0.9648632690429687
1731762617.8472598,-5.214571215820312,5.741295581054687,0.1197100830078125
1731762617.9024742,-8.870517150878905,3.816357446289062,0.47644613037109373
1731762617.958169,-5.434837768554687,1.8818425048828125,1.2378022583007813
1731762618.0140736,-3.6367923217773437,5.372588525390625,-1.3718775512695311
1731762618.06987,-8.257601525878906,4.218583325195312,-6.074089611816406
1731762618.125101,-10.912771166992187,1.6041151123046875,-8.20971749267578
1731762618.180424,-10.103531005859374,2.7198130859375,-7.208941198730468
1731762618.2357454,-5.839457849121094,5.949591125488281,-6.701370446777343
1731762618.290931,-14.343662145996094,4.994304663085937,-6.687005236816406
1731762618.3461287,-1.4173673828125,-4.951209033203125,-5.343858105468749
1731762618.4012833,-10.785878479003905,8.980650427246093,-1.0534487304687499
1731762618.4564137,-1.6639701538085936,4.177881896972656,0.34715924072265625
1731762618.5115628,-8.396465222167969,2.5163059448242184,1.3335703247070312
1731762618.5670316,-5.683834741210937,3.299209887695312,-0.0383072265625
1731762618.6225188,-4.493916516113281,5.042188696289062,-2.5809493896484375
1731762618.677664,-10.98699141845703,4.304774584960938,-5.140350964355468
1731762618.7327561,-8.128314636230469,3.23696064453125,-6.177040283203125
1731762618.7878394,-7.352593298339843,3.3877953491210935,-7.1395093505859375
1731762618.8430493,-9.689334118652344,2.8323405639648436,-8.010998754882811
1731762618.8982234,-11.973402502441406,3.73495458984375,-6.639121203613281
1731762618.9533708,-2.0302830078125,1.714248388671875,-4.015076184082031
1731762619.0084705,-6.72291826171875,2.798821740722656,-1.8076222534179687
1731762619.0635746,-6.284779357910156,4.515464331054687,-1.5059528442382812
1731762619.1187055,-10.022128149414062,3.679887951660156,-1.0893617553710937
1731762619.1738899,-3.9695863525390624,1.5682020874023437,-0.8116343627929687
1731762619.2291067,-7.110778930664062,4.797980126953124,-2.6408044311523438
1731762619.2842963,-8.892064965820312,2.825157958984375,-3.6846763549804686
1731762619.3395112,-7.936778503417968,2.214636535644531,-3.8570588745117185
1731762619.3946385,-5.8610056640625,4.527435339355469,-5.88015927734375
1731762619.4498367,-9.141061938476563,4.6998178588867185,-7.187393383789062
1731762619.5049431,-7.556100439453124,0.3064578125,-7.283161450195312
1731762619.5600696,-9.641450085449218,4.187458703613281,-7.0652890991210935
1731762619.6152258,-9.04050546875,3.900154504394531,-6.1818286865234375
1731762619.6704116,-7.481880187988281,0.49799394531249996,-5.279214660644531
1731762619.7256029,-5.250484240722656,1.7238251953125,-1.7381904052734374
1731762619.7807684,-5.343858105468749,5.628768103027343,-0.3447650390625
1731762619.8361638,-7.819462622070312,5.815515832519531,-1.2808978881835937
1731762619.8913157,-9.854534033203125,-0.21787235107421873,-0.36391865234375
1731762619.946487,-3.9983167724609374,3.9432501342773434,0.7709329345703124
1731762620.0016327,-5.374982727050781,5.571307263183593,-2.166752502441406
1731762620.0567617,-9.138667736816405,2.8275521606445313,-5.6383449096679685
1731762620.112001,-10.429142431640624,0.852335791015625,-4.836287353515624
1731762620.167172,-5.580884069824219,1.618480322265625,-6.277596752929687
1731762620.2222943,-7.766790185546874,5.585672473144531,-6.794744311523437
1731762620.2775142,-6.5385647338867185,2.068590234375,-7.134720947265625
1731762620.3327153,-11.087547888183593,2.9759926635742184,-8.027758166503906
1731762620.387913,-11.63821427001953,1.956062756347656,-7.335833886718749
1731762620.4411821,-1.6735469604492186,2.300827795410156,-3.229778039550781
1731762620.4943402,-5.425260961914062,4.5585599609375,0.34237083740234375
1731762620.5475235,-7.706935144042968,4.599261389160156,0.689530078125
1731762620.60064,-7.987056738281249,2.133233679199219,0.4572925170898437
1731762620.6538002,-6.007051965332031,3.938461730957031,-0.11013327636718749
1731762620.7069721,-4.7022120605468745,2.980781066894531,-2.916137622070312
1731762620.760186,-6.543353137207031,3.526659045410156,-5.556942053222656
1731762620.8133564,-9.981426721191406,2.5043349365234375,-6.603208178710937
1731762620.8665724,-6.5768719604492185,0.51714755859375,-7.108384729003906
1731762620.9197557,-7.869740856933594,5.046977099609375,-6.986280444335937
1731762620.9729633,-7.299920861816406,2.920926025390625,-7.6087728759765625
1731762621.0261233,-10.321403356933594,3.775656018066406,-7.048529687499999
1731762621.0792944,-8.760383874511719,1.3048399047851562,-8.188169677734374
1731762621.1325088,-5.386953735351562,3.181894006347656,-5.3007624755859375
1731762621.1857104,-1.429338391113281,2.901772412109375,-0.2561795776367187
1731762621.2388911,-9.854534033203125,6.232106921386718,-1.1252747802734375
1731762621.2920697,-8.20971749267578,1.3646949462890625,-0.2825157958984375
1731762621.3453593,-7.070077502441406,4.479551306152343,1.235408056640625
1731762621.3986912,-4.141968872070312,3.3207577026367185,-0.02633621826171875
1731762621.4521024,-6.7037646484375,3.9552211425781247,-3.0526071166992184
1731762621.505483,-8.702923034667968,3.5601778686523438,-6.028599780273437
1731762621.5588572,-7.769184387207031,1.1133037719726562,-7.46272657470703
1731762621.6122468,-8.882488159179687,2.2936451904296873,-8.17859287109375
1731762621.6656437,-7.673416320800781,4.503493322753906,-7.771578588867187
1731762621.719055,-4.240131140136718,0.622492431640625,-7.038952880859375
1731762621.772523,-15.46893692626953,5.681440539550781,-8.343792785644531
1731762621.8259437,-0.033518823242187495,-4.7572786987304685,-5.786785412597656
1731762621.879409,-8.010998754882811,8.034940771484374,-1.68551796875
1731762621.9327857,-5.875370874023437,4.587290380859375,-0.8379705810546875
1731762621.986191,-7.005434057617187,1.3838485595703125,0.2059013427734375
1731762622.0395684,-6.603208178710937,5.341463903808593,0.7781155395507812
1731762622.0933268,-5.710170959472656,4.101267443847656,0.3327940307617187
1731762622.1467497,-4.666299035644531,3.1747114013671873,-3.009511486816406
1731762622.2001255,-11.427524523925781,4.410119458007812,-5.9208607055664055
1731762622.2535007,-7.003039855957031,-0.9002198242187499,-5.7149593627929685
1731762622.3067791,-6.749254479980468,3.7205893798828122,-7.244854223632812
1731762622.3600647,-9.437942944335937,2.9185318237304685,-6.548141540527343
1731762622.4137065,-9.303867651367186,3.2824504760742186,-7.223306408691406
1731762622.4670315,-10.541669909667968,1.6256629272460936,-6.746860278320312
1731762622.5204139,-9.94072529296875,2.971204260253906,-5.324704492187499
1731762622.5737562,-1.5466542724609373,2.9640216552734375,-1.0965443603515623
1731762622.6270957,-6.368576416015625,7.230489013671875,1.3838485595703125
1731762622.6804984,-7.287949853515625,2.085349645996094,0.047884033203124995
1731762622.7338696,-8.808267907714843,1.8818425048828125,0.040701428222656245
1731762622.787258,-7.908048083496094,5.073313317871094,-0.0718260498046875
1731762622.8406231,-1.3048399047851562,1.5753846923828123,-1.455674609375
1731762622.8939784,-9.753977563476562,5.494692810058593,-6.849810949707031
1731762622.9473913,-12.236764685058594,2.01112939453125,-7.639897497558593
1731762623.0006797,-7.426813549804687,1.4963760375976562,-6.619967590332031
1731762623.0540218,-6.794744311523437,5.212177014160156,-6.461950280761719
1731762623.1074982,-7.800309008789062,3.6679169433593746,-7.821856823730468
1731762623.1608143,-12.464213842773436,0.8834604125976562,-7.809885815429687
1731762623.2142746,-5.9950809570312495,2.5474305664062498,-5.985504150390625
1731762623.2676477,-3.0909143432617188,5.758054992675781,0.38307226562499996
1731762623.3210058,-6.60799658203125,5.892130285644531,-0.5698199951171875
1731762623.3743787,-6.574477758789062,0.46208092041015625,-0.47884033203125
1731762623.4277165,-9.897629663085937,5.4515971801757805,-0.6655880615234374
1731762623.4810104,-3.778050219726562,2.664746447753906,-1.2713210815429687
1731762623.5343685,-7.635109094238281,3.878606689453125,-1.668758557128906
1731762623.587733,-5.178658190917968,2.4205378784179685,-6.153098266601562
1731762623.6412244,-13.029245434570312,4.228160131835938,-6.603208178710937
1731762623.6947956,-6.270414147949219,0.9935936889648437,-5.681440539550781
1731762623.7481596,-6.2201359130859375,4.627991809082031,-5.082890124511718
1731762623.8014867,-10.103531005859374,4.407725256347656,-6.871358764648437
1731762623.8548775,-13.089100476074218,1.2617442749023438,-6.792350109863281
1731762623.908318,-5.815515832519531,1.3072341064453123,-4.165910888671875
1731762623.9617047,-3.4811692138671875,6.289567761230469,-1.0606313354492187
1731762624.015119,-5.406107348632812,4.759672900390624,-0.8690952026367187
1731762624.0685458,-8.683769421386717,1.0079588989257813,-0.8212111694335937
1731762624.1219165,-8.959102612304687,3.220201232910156,-1.209071838378906
1731762624.1752493,-2.2098481323242187,4.309562988281249,-1.6304513305664061
1731762624.2286665,-7.881711865234375,4.110844250488281,-5.6311623046875
1731762624.282311,-12.406753002929687,2.4253262817382812,-7.323862878417969
1731762624.3359072,-6.749254479980468,3.411737365722656,-6.964732629394531
1731762624.3892553,-6.4739212890625,3.825934252929687,-5.722141967773437
1731762624.4424887,-7.793126403808594,3.134009973144531,-6.675034228515624
1731762624.495678,-13.5224509765625,3.821145849609375,-8.233659509277343
1731762624.548869,-5.5832782714843745,1.5969325073242187,-6.157886669921875
1731762624.602065,-3.057395520019531,3.5577836669921874,2.370259643554687
1731762624.6553085,-9.042899670410156,5.537788439941406,-0.8547299926757812
1731762624.7103748,-5.499481213378906,1.4939818359375,-0.7254431030273437
1731762624.765515,-8.863334545898438,5.233724829101562,-0.718260498046875
1731762624.8206706,-2.4588451049804685,2.3032219970703123,-0.8690952026367187
1731762624.875794,-8.896853369140624,4.953603234863281,-4.204218115234375
1731762624.9309456,-8.626308581542968,3.7325603881835936,-6.543353137207031
1731762624.9861262,-8.343792785644531,2.6408044311523438,-6.710947253417968
1731762625.0412295,-7.5537062377929685,3.5865140869140624,-5.892130285644531
1731762625.0966623,-4.891353991699218,3.7421371948242186,-5.980715747070312
1731762625.1518788,-13.747505932617187,4.955997436523437,-7.563283044433593
1731762625.2070646,-9.13627353515625,0.32082302246093747,-7.0461354858398435
1731762625.2622497,-5.923254907226562,4.745307690429687,-2.6862942626953124
1731762625.3174875,0.9217676391601562,3.8187516479492185,1.1611878051757811
1731762625.372687,-10.522516296386717,3.189076611328125,-0.411802685546875
1731762625.4278026,-7.472303381347656,3.4811692138671875,-0.6488286499023437
1731762625.4829206,-7.3932947265625,4.264073156738281,-0.7038952880859375
1731762625.5380805,-2.808398547363281,1.3766659545898436,-2.7844565307617186
1731762625.5937667,-11.039663854980468,6.251260534667968,-5.063736511230468
1731762625.6489658,-8.125920434570313,2.817975354003906,-6.8593877563476555
1731762625.704353,-8.619125976562499,3.706224169921875,-6.404489440917969
1731762625.7598088,-6.76122548828125,2.863465185546875,-6.141127258300781
1731762625.8149536,-6.7037646484375,3.3686417358398435,-7.134720947265625
1731762625.870096,-16.122553979492185,5.825092639160156,-8.183381274414062
1731762625.9252443,0.6679822631835937,-2.0781670410156248,-4.189852905273438
1731762625.98044,-9.184157568359375,8.350975390624999,-0.34715924072265625
1731762626.0356016,-3.9145197143554684,1.599326708984375,-0.22026655273437498
1731762626.09076,-10.328585961914062,4.587290380859375,-0.24660277099609373
1731762626.1458886,-5.178658190917968,2.6599580444335937,0.9911994873046874
1731762626.2010236,-3.5960908935546874,4.295197778320312,-0.9792284790039062
1731762626.2562,-8.372523205566406,4.704606262207031,-3.246537451171875
1731762626.3115556,-7.977479931640625,1.8626888916015625,-6.3709706176757805
1731762626.3667514,-10.01015714111328,3.4859576171874997,-6.739677673339843
1731762626.4219577,-5.7125651611328125,3.5960908935546874,-4.896142395019531
1731762626.4771993,-5.827486840820312,3.4811692138671875,-7.230489013671875
1731762626.532334,-14.247894079589843,5.315127685546875,-8.135497241210937
1731762626.5874763,-5.863399865722656,-0.3711012573242187,-6.804321118164062
1731762626.6426044,-7.192181787109375,6.318298181152343,-1.4413093994140624
1731762626.6976936,-3.1364041748046874,4.8889597900390624,-0.8068459594726562
1731762626.7528012,-10.002974536132811,2.1643583007812497,-1.0319009155273438
1731762626.8078418,-5.9400143188476555,3.1866824096679687,0.6727706665039062
1731762626.862964,-5.736507177734374,6.461950280761719,0.51714755859375
1731762626.9181511,-5.461173986816406,1.5945383056640625,-1.0797849487304687
1731762626.9733028,-9.045293872070312,4.503493322753906,-5.628768103027343
1731762627.0284905,-8.092401611328125,2.403778466796875,-5.973533142089844
1731762627.0835986,-8.525752111816406,4.024652990722656,-6.112396838378906
1731762627.1387925,-7.491456994628906,4.805162731933594,-5.585672473144531
1731762627.1939554,-10.654197387695312,4.647145422363281,-8.657433203124999
1731762627.249067,-11.980585107421874,3.1196447631835937,-8.164227661132813
1731762627.3044925,-2.858676782226562,2.023100402832031,-4.2688615600585935
1731762627.3596396,-0.12449848632812499,5.257666845703125,1.2617442749023438
1731762627.414814,-11.238382592773437,6.004657763671875,-0.7517793212890624
1731762627.4699504,-4.766855505371093,-0.1197100830078125,-0.15083470458984374
1731762627.5250988,-5.829881042480468,5.805939025878906,0.38786066894531246
1731762627.580298,-7.762001782226562,4.106055847167968,-2.5953145996093747
1731762627.6355,-6.349422802734375,1.946485949707031,-6.873752966308594
1731762627.6905906,-11.444283935546874,6.141127258300781,-6.356605407714843
1731762627.7456913,-6.038176586914062,1.2210428466796874,-5.868188269042968
1731762627.8008566,-7.666233715820312,3.976768957519531,-5.896918688964844
1731762627.8559825,-5.760449194335937,3.5027170288085934,-7.297526660156249
1731762627.911187,-18.842367065429688,5.729324572753906,-5.590460876464843
1731762627.964415,3.299209887695312,-2.1715409057617188,-4.261678955078125
1731762628.0176523,-10.527304699707031,7.644685900878906,-0.6440402465820312
1731762628.0727773,-2.379836450195312,1.9225439331054686,-0.17238251953125
1731762628.1280134,-11.508927380371093,6.581660363769531,-1.6041151123046875
1731762628.1832213,-7.240065820312499,1.8291700683593748,-0.1197100830078125
1731762628.2384007,-5.147533569335937,4.417302062988281,-0.17956512451171874
1731762628.294036,-6.754042883300781,4.426878869628906,-2.786850732421875
1731762628.3493562,-7.398083129882812,2.360682836914062,-7.225700610351562
1731762628.4046278,-11.674127294921874,4.280832568359375,-5.453991381835937
1731762628.4598873,-4.953603234863281,3.3159692993164063,-5.427655163574219
1731762628.515165,-5.906495495605468,3.8043864379882812,-6.53138212890625
1731762628.5704446,-8.161833459472655,2.7461493041992187,-6.382941625976562
1731762628.6257138,-7.213729602050781,3.4428619873046875,-6.706158850097656
1731762628.6810405,-12.667720983886719,5.5832782714843745,-6.0716954101562495
1731762628.7388296,-3.8762124877929685,1.7262193969726563,-8.774749084472656
1731762628.7944767,-3.706224169921875,3.6272155151367187,-1.2282254516601563
1731762628.8496845,-10.536881506347656,3.9360675292968748,-0.3591302490234375
1731762628.9048243,-4.862623571777344,1.927332336425781,-0.0526724365234375
1731762628.9600062,-8.461108666992187,6.687005236816406,-0.7062894897460937
1731762629.015125,-5.652710119628906,1.886630908203125,-0.7733271362304687
1731762629.0702407,-5.092466931152344,3.3303345092773435,-6.414066247558593
1731762629.125363,-11.008539233398437,5.992686755371094,-4.752490295410156
1731762629.180498,-4.867411975097656,2.6336218261718747,-6.411672045898437
1731762629.2356477,-8.530540515136718,4.819527941894531,-5.971138940429687
1731762629.290884,-4.75009609375,1.6519991455078125,-5.693411547851563
1731762629.3461242,-6.555324145507812,4.333505004882812,-6.572083557128906
1731762629.4012637,-6.1842228881835934,2.482787121582031,-7.017405065917968
1731762629.4566658,-14.707580798339842,6.445190869140625,-9.303867651367186
1731762629.5117862,-0.9409212524414062,1.4628572143554686,-9.421183532714844
1731762629.5669537,0.59376201171875,3.6367923217773437,-0.5530605834960938
1731762629.6222987,-9.459490759277344,7.37414111328125,-2.50912333984375
1731762629.67745,-7.4579381713867186,0.0383072265625,-0.59376201171875
1731762629.7325597,-6.222530114746093,5.453991381835937,-0.1867477294921875
1731762629.7877297,-3.430890979003906,3.5529952636718747,-2.89219560546875
1731762629.8428802,-8.176198669433592,4.106055847167968,-5.671863732910156
1731762629.8980718,-10.280701928710936,3.6152445068359373,-6.890512377929687
1731762629.9532013,-5.044582897949218,2.1595698974609374,-6.248866333007812
1731762630.0083594,-7.0102224609374995,5.142745166015625,-6.438008264160156
1731762630.0635483,-6.758831286621094,2.0470424194335934,-6.452373474121093
1731762630.1187663,-7.307103466796875,4.13718046875,-7.613561279296874
1731762630.1742396,-14.219163659667968,5.540182641601562,-6.026205578613281
1731762630.2293806,-3.21780703125,0.8786720092773437,-3.708618371582031
1731762630.2844918,-6.514622717285156,5.887341882324218,-1.3192051147460937
1731762630.3395753,-4.53940634765625,3.0310593017578125,-0.8786720092773437
1731762630.394752,-11.920730065917969,4.1946413085937495,-0.411802685546875
1731762630.4498875,-2.96881005859375,3.423708374023437,-0.8451531860351562
1731762630.5049694,-6.452373474121093,4.477157104492187,-0.7110778930664062
1731762630.5600502,-5.894524487304687,3.4715924072265625,-5.145139367675781
1731762630.615301,-11.21683477783203,4.8650177734375,-6.37815322265625
1731762630.6704242,-6.222530114746093,1.9776105712890624,-6.189011291503906
1731762630.7236643,-6.586448767089843,4.410119458007812,-7.237671618652343
1731762630.7768216,-9.023746057128905,3.687070556640625,-7.587225061035156
1731762630.8319767,-7.192181787109375,1.8770541015625,-5.942408520507812
1731762630.8871315,-12.856862915039061,7.979874133300781,-4.996698864746094
1731762630.9423637,-0.8930372192382812,-0.6416460449218749,-3.995922570800781
1731762630.9975104,-8.595183959960938,6.545747338867187,-1.70467158203125
1731762631.0525818,-4.915296008300781,2.1452046874999997,-0.1484405029296875
1731762631.1077125,-6.234501123046875,5.070919116210937,-0.3064578125
1731762631.162857,-7.4699091796875,3.5984850952148437,-1.1061211669921875
1731762631.2179947,-3.7229835815429686,2.4684219116210935,-1.9728221679687499
1731762631.2731123,-8.104372619628906,5.846640454101562,-6.229712719726562
1731762631.3283622,-8.896853369140624,1.8531120849609375,-6.438008264160156
1731762631.3834608,-6.4356140625,3.1028853515624997,-6.507440112304687
1731762631.4386718,-7.4220251464843745,4.958391638183594,-6.363788012695312
1731762631.4939427,-6.732495068359374,2.2601263671875,-6.794744311523437
1731762631.5492642,-12.85207451171875,6.368576416015625,-8.588001354980468
1731762631.6047015,-2.3487118286132813,-2.3391350219726563,-7.649474304199218
1731762631.6598434,-6.232106921386718,6.129156249999999,-1.2808978881835937
1731762631.7150095,-6.045359191894531,5.813121630859374,-0.6464344482421874
1731762631.7701728,-4.721365673828124,1.5418658691406248,-0.031124621582031248
1731762631.8254278,-9.141061938476563,5.370194323730469,-1.1061211669921875
1731762631.8805974,-3.3399113159179685,2.35589443359375,-1.7645266235351562
1731762631.9357357,-9.117119921875,4.972756848144531,-3.536235852050781
1731762631.9908414,-4.589684582519531,1.8698714965820311,-6.019022973632812
1731762632.0460637,-10.01015714111328,5.212177014160156,-7.491456994628906
1731762632.101235,-5.882553479003906,1.2138602416992186,-6.562506750488281
1731762632.1563866,-6.3973068359375,4.8506525634765625,-6.600813977050781
1731762632.211466,-7.886500268554687,4.6064439941406246,-8.547299926757812
1731762632.2666645,-10.943895788574219,2.844311572265625,-7.359775903320312
1731762632.321825,-3.897760302734375,1.7166425903320313,-3.7421371948242186
1731762632.3770344,-4.484339709472656,4.8889597900390624,-1.7381904052734374
1731762632.432262,-8.602366564941406,4.994304663085937,-1.5418658691406248
1731762632.4873927,-6.663063220214843,2.319981408691406,-1.4987702392578124
1731762632.5425959,-6.969521032714844,4.486733911132812,-1.1156979736328125
1731762632.5976868,-7.1395093505859375,4.1563340820312495,-2.042254016113281
1731762632.6527998,-5.367800122070312,2.6312276245117188,-2.607285607910156
1731762632.7079027,-7.208941198730468,4.802768530273437,-4.659116430664063
1731762632.7630231,-7.132326745605468,2.252943762207031,-5.899312890625
1731762632.8181257,-7.771578588867187,4.388571643066406,-6.567295153808593
1731762632.8732498,-6.947973217773437,3.8043864379882812,-7.975085729980468
1731762632.9283504,-6.610390783691406,2.300827795410156,-6.509834313964843
1731762632.9834995,-5.9783215454101555,3.356670727539062,-6.766013891601562
1731762633.038613,-14.255076684570312,7.1778165771484375,-7.264007836914062
1731762633.093838,-2.798821740722656,-1.70467158203125,-2.1547814941406247
1731762633.1492145,-6.411672045898437,7.64229169921875,-1.5155296508789062
1731762633.2043748,-5.4899044067382805,3.6152445068359373,-0.09337386474609374
1731762633.259513,-9.246406811523437,3.27526787109375,-0.9624690673828125
1731762633.314601,-5.683834741210937,4.438849877929687,-0.5458779785156249
1731762633.3697774,-4.668693237304687,4.386177441406249,-1.2042834350585936
1731762633.424895,-7.110778930664062,4.132392065429687,-4.185064501953125
1731762633.4800894,-8.94473740234375,3.4620156005859375,-7.690175732421874
1731762633.5352027,-8.717288244628906,2.403778466796875,-6.591237170410156
1731762633.5903761,-5.161898779296875,4.57771357421875,-6.133944653320312
1731762633.645546,-6.739677673339843,4.168305090332031,-7.445967163085937
1731762633.700664,-10.12507882080078,2.9089550170898435,-7.206546997070312
1731762633.755844,-6.227318518066406,3.897760302734375,-6.495469104003906
1731762633.8109798,-8.916006982421875,4.314351391601562,-4.414907861328125
1731762633.8660967,-3.6367923217773437,2.1787235107421874,-2.0781670410156248
1731762633.9212198,-8.250418920898436,6.1459156616210935,-1.6543933471679686
1731762633.9763935,-7.6997525390625,2.5737667846679684,-0.9433154541015625
1731762634.0301645,-6.2009822998046875,4.666299035644531,-0.45010991210937495
1731762634.083351,-6.68461103515625,3.5314474487304683,-0.1867477294921875
1731762634.138481,-3.6439749267578123,3.3016040893554686,-1.9536685546875
1731762634.193689,-8.573636145019531,5.779602807617187,-5.0182466796875
1731762634.2487957,-6.543353137207031,1.4604630126953124,-7.101202124023437
1731762634.303967,-6.854599353027344,4.165910888671875,-7.134720947265625
1731762634.3590426,-5.475539196777343,4.182670300292968,-6.847416748046874
1731762634.4141808,-7.747636572265624,4.92247861328125,-8.0828248046875
1731762634.4693906,-13.354856860351562,4.316745593261719,-6.9168485961914055
1731762634.5245047,-3.88818349609375,1.7429788085937499,-4.955997436523437
1731762634.5796192,-2.5665841796874997,5.102043737792968,-1.3646949462890625
1731762634.634755,-8.123526232910155,6.277596752929687,-2.176329309082031
1731762634.689911,-8.990227233886719,1.3575123413085937,-1.199495031738281
1731762634.7450655,-4.57771357421875,4.438849877929687,-0.19871873779296872
1731762634.8003433,-5.774814404296874,3.921702319335937,-0.6488286499023437
1731762634.8554778,-5.947196923828125,3.8379052612304685,-2.5043349365234375
1731762634.9106247,-6.89530078125,4.2688615600585935,-6.356605407714843
1731762634.9657273,-11.015721838378905,3.385401147460937,-6.572083557128906
1731762635.0208318,-4.6639048339843745,2.636016027832031,-6.768408093261718
1731762635.0759416,-8.001421948242188,7.187393383789062,-7.3861121215820305
1731762635.131056,-10.658985791015624,2.7653029174804686,-6.636727001953124
1731762635.1861413,-4.084508032226562,1.9656395629882812,-5.681440539550781
1731762635.24125,-7.433996154785156,6.4475850708007805,-2.7844565307617186
1731762635.2963834,-3.5242648437499997,0.7062894897460937,-1.0127473022460938
1731762635.351503,-10.809820495605468,7.635109094238281,-2.214636535644531
1731762635.4066334,-5.588066674804687,0.8882488159179687,-0.7757213378906249
1731762635.4618049,-6.342240197753906,5.197811804199218,-0.5267243652343749
1731762635.5169194,-5.504269616699219,5.137956762695312,-1.2832920898437499
1731762635.5719922,-6.193799694824218,4.5585599609375,-4.431667272949219
1731762635.6271784,-10.378864196777343,3.4548329956054684,-6.545747338867187
1731762635.682291,-6.945579016113281,2.300827795410156,-5.932831713867187
1731762635.7374277,-6.572083557128906,5.963956335449218,-5.8083332275390624
1731762635.7925565,-9.255983618164063,5.391742138671875,-7.501033801269531
1731762635.8477025,-9.481038574218749,1.3862427612304686,-5.576095666503906
1731762635.902841,-6.308721374511719,6.121973645019531,-3.706224169921875
1731762635.9579487,-2.789244934082031,3.5146880371093747,-1.5610194824218748
1731762636.0132377,-8.518569506835936,4.491522314453125,-1.5131354492187499
1731762636.0686562,-7.721300354003906,3.986345764160156,-1.2114660400390624
1731762636.1238556,-4.8698061767578125,3.3973721557617185,-0.51714755859375
1731762636.1790233,-6.150704064941406,4.235342736816406,-0.9983820922851562
1731762636.2342293,-6.275202551269531,4.673481640625,-3.201047619628906
1731762636.2894158,-10.043675964355469,4.103661645507812,-6.861781958007812
1731762636.344572,-7.216123803710937,2.70065947265625,-6.248866333007812
1731762636.3996854,-6.4643444824218745,5.228936425781249,-5.966350537109375
1731762636.4549415,-10.280701928710936,6.344634399414062,-5.825092639160156
1731762636.510076,-8.635885388183594,2.4013842651367185,-6.373364819335937
1731762636.565217,-6.4356140625,4.165910888671875,-3.7421371948242186
1731762636.6204815,-5.700594152832031,5.128379956054687,-2.0159177978515626
1731762636.675652,-6.138733056640625,4.199429711914062,-1.7788918334960937
1731762636.73078,-7.082048510742187,3.318363500976562,-0.42377369384765623
1731762636.785954,-6.023811376953125,5.382165332031249,-0.033518823242187495
1731762636.8412077,-6.993463049316406,4.1563340820312495,-0.507570751953125
1731762636.8948677,-5.7508723876953125,4.678270043945313,-4.666299035644531
1731762636.9482653,-7.321468676757812,2.7246014892578123,-5.051765502929687
1731762637.0016432,-8.884882360839843,6.363788012695312,-5.774814404296874
1731762637.0550325,-3.699041564941406,3.299209887695312,-5.147533569335937
1731762637.1083953,-8.846575134277343,4.594472985839843,-7.041347082519531
1731762637.1617591,-10.077194787597655,5.774814404296874,-7.572859851074218
1731762637.2151568,-8.109161022949218,3.5314474487304683,-7.644685900878906
1731762637.26857,-3.5290532470703124,0.718260498046875,-4.101267443847656
1731762637.321936,-4.936843823242187,5.085284326171875,-1.8626888916015625
1731762637.3753266,-6.993463049316406,7.153874560546875,-1.2114660400390624
1731762637.4286466,-5.327098693847656,3.7397429931640622,-0.5147533569335937
1731762637.4820013,-3.411737365722656,3.9049429077148434,-0.9074024291992187
1731762637.535393,-4.378994836425781,6.964732629394531,-4.936843823242187
1731762637.5887244,-9.524134204101562,1.3215993164062498,-6.189011291503906
1731762637.64226,-7.252036828613281,1.9536685546875,-10.632649572753905
1731762637.6956291,-7.9655089233398435,4.733336682128906,-6.457161877441406
1731762637.7490296,-4.604049792480469,5.228936425781249,-8.185775476074218
1731762637.802545,-9.284714038085937,6.512228515625,-9.710881933593749
1731762637.8559103,-6.931213806152344,-0.24181436767578124,-6.617573388671874
1731762637.9092352,-3.632003918457031,4.659116430664063,-2.5067291381835934
1731762637.9625986,-3.687070556640625,7.1586629638671875,-1.5634136840820312
1731762638.0159392,-4.893748193359374,6.660669018554687,-0.41898529052734373
1731762638.0693016,-6.366182214355469,2.940079638671875,-1.4437036010742186
1731762638.1226366,-6.730100866699218,4.891353991699218,-1.2425906616210938
1731762638.1760309,-4.819527941894531,5.444414575195312,-3.852270471191406
1731762638.2293746,-7.201758593749999,5.106832141113281,-5.461173986816406
1731762638.2827804,-5.679046337890624,0.19632453613281248,-6.981492041015625
1731762638.3361769,-9.282319836425781,6.198588098144531,-6.2201359130859375
1731762638.389533,-5.078101721191406,4.498704919433593,-5.327098693847656
1731762638.4428725,-9.801861596679688,4.364629626464843,-7.012616662597656
1731762638.496524,-7.876923461914062,4.005499377441406,-7.173028173828125
1731762638.5498438,-3.632003918457031,1.3910311645507811,-3.9049429077148434
1731762638.6031911,-7.218518005371093,6.124367846679687,-3.2561142578125
1731762638.6565075,-6.476315490722656,5.070919116210937,-2.7198130859375
1731762638.709877,-6.320692382812499,3.708618371582031,-2.6815058593749996
1731762638.763221,-8.650250598144531,3.8474820678710935,-1.2378022583007813
1731762638.81654,-3.337517114257812,5.209782812499999,-1.8291700683593748
1731762638.869912,-6.347028601074219,4.2880151733398435,-1.47482822265625
1731762638.9233603,-5.846640454101562,4.2329485351562495,-5.961562133789062
1731762638.9766634,-10.000580334472655,1.9512743530273435,-5.777208605957031
1731762639.0318873,-6.438008264160156,4.285620971679688,-6.852205151367187
1731762639.0871117,-4.115632653808594,3.189076611328125,-5.305550878906249
1731762639.1424246,-8.726865051269531,5.363011718749999,-8.94473740234375
1731762639.197736,-10.807426293945312,3.763685009765625,-6.203376501464843
1731762639.2529483,-3.7325603881835936,1.20667763671875,-5.844246252441406
1731762639.308179,-4.752490295410156,4.6064439941406246,-1.9129671264648436
1731762639.3634522,-8.379705810546875,6.9168485961914055,-2.0302830078125
1731762639.4194446,-5.980715747070312,2.882618798828125,-2.051830822753906
1731762639.4745994,-6.318298181152343,5.528211633300781,-1.9512743530273435
1731762639.5297284,-5.851428857421874,3.902548706054687,-2.061407629394531
1731762639.5849113,-5.870582470703124,3.775656018066406,-3.385401147460937
1731762639.6401308,-7.802703210449218,4.024652990722656,-4.395754248046875
1731762639.6953137,-7.316680273437499,4.438849877929687,-6.3709706176757805
1731762639.7504814,-6.5768719604492185,2.0470424194335934,-5.576095666503906
1731762639.8055778,-7.671022119140624,6.7277066650390625,-6.0333881835937495
1731762639.8606746,-6.222530114746093,2.6695348510742187,-6.8593877563476555
1731762639.91583,-9.82580361328125,5.760449194335937,-6.313509777832031
1731762639.9709415,-5.183446594238281,1.7669208251953124,-3.5386300537109374
1731762640.0261269,-4.805162731933594,5.173869787597656,-2.4564509033203126
1731762640.0812216,-7.745242370605468,5.6215854980468745,-2.4684219116210935
1731762640.1363232,-5.092466931152344,3.909731311035156,-2.8131869506835936
1731762640.1915276,-5.887341882324218,5.767631799316406,-1.1875240234375
1731762640.246706,-5.372588525390625,3.890577697753906,-1.905784521484375
1731762640.3018048,-5.798756420898437,4.266467358398438,-4.548983154296875
1731762640.3569343,-9.095572106933593,3.900154504394531,-5.140350964355468
1731762640.412058,-6.591237170410156,3.5218706420898434,-5.487510205078125
1731762640.467142,-5.801150622558594,3.907337109375,-5.908889697265625
1731762640.5222466,-8.09479581298828,4.843469958496094,-7.1035963256835934
1731762640.5774114,-8.89924757080078,4.522646936035156,-7.45075556640625
1731762640.6325355,-6.663063220214843,3.967192150878906,-6.452373474121093
1731762640.6877286,-5.063736511230468,2.9376854370117185,-3.806780639648437
1731762640.7429135,-5.9017070922851556,5.360617517089843,-2.750937707519531
1731762640.7981346,-5.482721801757812,5.231330627441406,-2.50912333984375
1731762640.8533132,-6.347028601074219,4.57771357421875,-1.1156979736328125
1731762640.9084718,-5.734112976074218,4.932055419921875,-1.1061211669921875
1731762640.9637008,-4.860229370117187,4.242525341796875,-3.1220389648437497
1731762641.0188718,-7.45075556640625,3.928884924316406,-4.3263223999023435
1731762641.074116,-7.369352709960937,2.971204260253906,-6.5601125488281244
1731762641.1292984,-8.367734802246094,4.297591979980469,-6.418854650878906
1731762641.1844404,-5.197811804199218,4.007893579101562,-6.490680700683593
1731762641.2395844,-8.686163623046875,3.861847277832031,-7.505822204589843
1731762641.294711,-9.763554370117188,4.860229370117187,-10.350133776855468
1731762641.3498971,-6.9719152343749995,4.996698864746094,-4.120421057128906
1731762641.405062,-3.086125939941406,3.3494881225585935,-3.414131567382812
1731762641.4610364,-2.5617957763671875,6.773196496582031,-1.2856862915039062
1731762641.5163548,-7.192181787109375,5.0206408813476555,-0.9026140258789062
1731762641.5715308,-8.336610180664062,2.817975354003906,-1.927332336425781
1731762641.6267242,-3.7924154296875,5.355829113769531,-1.5777788940429687
1731762641.68192,-5.437231970214843,4.687846850585937,-3.5434184570312497
1731762641.7372346,-9.76116016845703,2.8898014038085935,-6.287173559570312
1731762641.79248,-7.745242370605468,3.6200329101562496,-6.150704064941406
1731762641.8476913,-6.059724401855468,5.286397265624999,-6.45476767578125
1731762641.903181,-6.758831286621094,3.3207577026367185,-8.003816149902343
1731762641.9583757,-13.393164086914062,4.477157104492187,-7.915230688476562
1731762642.013588,-2.8850130004882812,1.120486376953125,-5.516240625
1731762642.0687795,-3.392583752441406,4.620809204101562,-2.1715409057617188
1731762642.1262355,-8.233659509277343,5.623979699707031,-1.5251064575195312
1731762642.1814382,-5.944802722167968,4.266467358398438,-1.2928688964843749
1731762642.2365746,-6.8569935546875,5.662286926269531,-1.5394716674804687
1731762642.289976,-5.097255334472656,3.854664672851562,-1.6543933471679686
1731762642.3431842,-6.813897924804687,5.384559533691406,-3.1076737548828124
1731762642.3964164,-4.912901806640625,3.277662072753906,-5.571307263183593
1731762642.4508128,-9.126696728515624,3.2513258544921873,-6.191405493164062
1731762642.5059805,-7.043741284179687,2.8993782104492185,-6.174646081542968
1731762642.5611062,-5.511452221679687,5.154716174316406,-6.864176159667968
1731762642.6163762,-6.766013891601562,2.77727392578125,-7.448361364746093
1731762642.6715398,-10.73799444580078,4.599261389160156,-8.125920434570313
1731762642.7266643,-4.967968444824218,1.7525556152343749,-5.449202978515625
1731762642.7818067,-5.1690813842773435,3.7397429931640622,-3.7301661865234372
1731762642.8369622,-4.754884497070313,5.307945080566406,-1.3287819213867187
1731762642.892107,-6.5409589355468745,5.4779333984375,-2.398990063476562
1731762642.94728,-8.154650854492187,3.6487633300781246,-2.3056161987304686
1731762643.00243,-5.990292553710937,4.338293408203125,-1.7214309936523438
1731762643.0575697,-5.95677373046875,4.891353991699218,-1.927332336425781
1731762643.1126812,-4.7381250854492185,3.948038537597656,-3.5673604736328124
1731762643.167826,-9.093177905273437,3.4644098022460934,-6.174646081542968
1731762643.2230167,-8.63827958984375,3.7110125732421873,-7.649474304199218
1731762643.278159,-7.7596075805664055,2.1930887207031247,-1.5418658691406248
1731762643.333261,-5.664681127929687,7.41244833984375,-6.797138513183594
1731762643.3883722,-8.403647827148436,3.0454245117187497,-7.237671618652343
1731762643.4434745,-4.015076184082031,0.143652099609375,-4.709394665527343
1731762643.4985938,-9.222464794921875,5.858611462402344,-3.1507693847656246
1731762643.5536807,-5.406107348632812,1.886630908203125,-3.8379052612304685
1731762643.608808,-10.156203442382813,7.275978845214843,-4.309562988281249
1731762643.6639721,-7.785943798828124,3.9552211425781247,-6.028599780273437
1731762643.7190783,-4.522646936035156,-1.3192051147460937,-3.459621398925781
1731762643.7742682,-11.212046374511718,4.934449621582031,-3.995922570800781
1731762643.8295457,-4.838681555175781,1.5945383056640625,-3.859453076171875
1731762643.8847373,-8.250418920898436,2.437297290039062,-2.942473840332031
1731762643.9398868,-5.6383449096679685,4.256890551757812,-2.578555187988281
1731762643.9950464,-4.917690209960937,2.9448680419921875,-4.378994836425781
1731762644.050134,-7.922413293457031,0.8403647827148437,-5.932831713867187
1731762644.105253,-9.311050256347656,1.5586252807617187,-7.9655089233398435
1731762644.1603289,-6.4284314575195305,3.392583752441406,-7.558494641113281
1731762644.215436,-8.149862451171874,2.530671154785156,-7.56567724609375
1731762644.2705238,-11.832144604492187,2.3319524169921872,-7.747636572265624
1731762644.3256586,-1.7860744384765623,-0.14125789794921875,-5.439626171875
1731762644.3808434,-8.037334973144532,7.314286071777343,-1.8339584716796873
1731762644.436044,-5.358223315429687,2.7724855224609373,-2.7341782958984373
1731762644.4911966,-7.692569934082031,1.7262193969726563,-1.70467158203125
1731762644.5463066,-7.838616235351562,4.278438366699218,-2.2744915771484373
1731762644.6013868,-6.792350109863281,3.9145197143554684,-2.212242333984375
1731762644.6564953,-4.582501977539062,1.9536685546875,-3.105279553222656
1731762644.7115743,-7.826645227050781,2.9448680419921875,-4.6255976074218745
1731762644.7667592,-8.698134631347656,3.423708374023437,-4.874594580078124
1731762644.821944,-6.227318518066406,2.4301146850585935,-6.478709692382812
1731762644.8770776,-9.481038574218749,3.1076737548828124,-7.141903552246093
1731762644.9322622,-5.4013189453125,0.7805097412109374,-6.943184814453125
1731762644.9873776,-11.96382569580078,5.408501550292969,-5.693411547851563
1731762645.0425067,-2.6767174560546874,-0.5889736083984375,-5.295974072265625
1731762645.0977635,-9.727641345214844,4.374206433105469,-4.146757275390625
1731762645.151146,-1.838746875,3.6679169433593746,-2.3151930053710936
1731762645.204461,-8.913612780761719,5.5832782714843745,-2.003946789550781
1731762645.257855,-6.7277066650390625,2.205059729003906,-2.896984008789062
1731762645.311229,-6.9910688476562495,2.741360900878906,-2.482787121582031
1731762645.3646214,-5.135562561035156,3.258508459472656,-3.1172505615234374
1731762645.4179983,-6.543353137207031,4.029441394042968,-5.825092639160156
1731762645.4713306,-7.635109094238281,1.5490484741210937,-6.813897924804687
1731762645.5246797,-7.934384301757812,2.5665841796874997,-7.062894897460937
1731762645.5780807,-7.745242370605468,3.306392492675781,-7.3669585083007805
1731762645.631505,-4.010287780761718,0.23702596435546874,-6.801926916503906
1731762645.6848845,-8.068459594726562,3.6463691284179687,-8.55448253173828
1731762645.7382908,-12.943054174804686,4.2880151733398435,-8.980650427246093
1731762645.7916806,-3.1699229980468746,-1.5155296508789062,-5.588066674804687
1731762645.8450792,-5.7700260009765625,4.695029455566406,-2.7916391357421872
1731762645.8985474,-1.0438719238281249,3.3399113159179685,-1.0462661254882812
1731762645.9519265,-11.353304272460937,7.082048510742187,-2.4971523315429685
1731762646.0053315,-8.188169677734374,0.5770026000976562,-2.7940333374023436
1731762646.0587265,-5.839457849121094,3.806780639648437,-0.7757213378906249
1731762646.112112,-2.4756045166015626,4.446032482910156,-4.029441394042968
1731762646.1667984,-11.518504187011718,3.047818713378906,-6.993463049316406
1731762646.2203696,-6.969521032714844,-0.05746083984375,-7.113173132324218
1731762646.2737775,-9.296685046386719,4.225765930175781,-6.701370446777343
1731762646.327189,-3.1004911499023438,3.308786694335937,-6.270414147949219
1731762646.3805923,-10.302249743652343,3.526659045410156,-7.48906279296875
1731762646.4339616,-10.189722265624999,1.22583125,-7.915230688476562
1731762646.487383,-4.005499377441406,1.8004396484374998,-8.252813122558594
1731762646.5407436,-2.789244934082031,5.329492895507812,-2.1021090576171875
1731762646.5940826,-7.182604980468749,4.134786267089844,-2.0159177978515626
1731762646.6474376,-8.971073620605468,1.7860744384765623,-2.693476867675781
1731762646.7008014,-7.074865905761718,4.613626599121093,-2.0781670410156248
1731762646.7541897,-6.988674645996094,4.151545678710937,-1.7501614135742187
1731762646.8075724,-3.801992236328125,1.6711527587890624,-3.1579519897460937
1731762646.860956,-8.427589843749999,3.488351818847656,-5.825092639160156
1731762646.9143271,-8.042123376464843,2.779668127441406,-7.230489013671875
1731762646.9676855,-7.8721350585937495,2.6312276245117188,-6.263231542968749
1731762647.0210514,-6.698976245117187,2.6599580444335937,-6.438008264160156
1731762647.0744371,-7.146691955566406,2.5761609863281247,-6.5768719604492185
1731762647.1277668,-8.930372192382812,2.6312276245117188,-6.414066247558593
1731762647.1811135,-8.702923034667968,2.858676782226562,-5.2073886108398435
1731762647.2345097,-2.987963671875,3.189076611328125,-3.2728736694335936
1731762647.2878833,-7.697358337402343,4.311957189941406,-2.940079638671875
1731762647.3412108,-8.147468249511718,2.9568390502929685,-3.258508459472656
1731762647.394558,-7.074865905761718,4.261678955078125,-2.2649147705078123
1731762647.4479296,-8.221688500976562,3.153163586425781,-1.9608511596679685
1731762647.5012503,-7.146691955566406,3.890577697753906,-2.2074539306640624
1731762647.5545778,-5.195417602539062,3.4548329956054684,-2.023100402832031
1731762647.6079757,-5.717353564453124,2.3343466186523436,-5.236119030761718
1731762647.6613574,-10.512939489746094,3.536235852050781,-6.167463476562499
1731762647.7150304,-8.355763793945313,2.327164013671875,-5.683834741210937
1731762647.7684035,-6.41646044921875,2.77727392578125,-5.746083984375
1731762647.8217492,-8.113949426269532,3.1124621582031247,-6.186617089843749
1731762647.875083,-9.751583361816406,3.3973721557617185,-7.740453967285156
1731762647.9284608,-6.679822631835937,1.446097802734375,-4.450820886230469
1731762647.9818547,-3.873818286132812,4.790797521972656,-2.003946789550781
1731762648.0352144,-8.307879760742187,4.958391638183594,-3.4811692138671875
1731762648.0886078,-6.655880615234374,1.0223241088867188,-2.7916391357421872
1731762648.142089,-8.386888415527343,5.4779333984375,-1.8219874633789062
1731762648.1954722,-6.6702458251953125,3.670311145019531,-2.492363928222656
1731762648.2488077,-7.807491613769531,3.0047230834960934,-2.3415292236328122
1731762648.30224,-4.029441394042968,2.6671406494140624,-2.6982652709960937
1731762648.35561,-7.953537915039062,3.88818349609375,-5.8083332275390624
1731762648.40892,-9.430760339355468,2.6791116577148437,-6.157886669921875
1731762648.4622939,-6.847416748046874,2.4851813232421875,-5.6191912963867185
1731762648.5157573,-6.742071875,2.73896669921875,-6.320692382812499
1731762648.5690243,-7.438784558105469,2.2960393920898436,-7.287949853515625
1731762648.6222339,-9.042899670410156,2.8993782104492185,-7.625532287597656
1731762648.6773753,-9.267954626464844,2.6288334228515624,-7.187393383789062
1731762648.732503,-3.7924154296875,3.5434184570312497,-2.6479870361328124
1731762648.7876306,-6.021417175292968,4.786009118652344,-1.7238251953125
1731762648.8427918,-7.994239343261718,1.7788918334960937,-4.106055847167968
1731762648.897899,-6.754042883300781,4.285620971679688,-1.7453730102539062
1731762648.9530568,-6.347028601074219,4.438849877929687,-1.4987702392578124
1731762649.008479,-2.231395947265625,1.7357962036132812,-2.408566870117187
1731762649.0636065,-11.173739147949219,3.873818286132812,-6.8210805297851556
1731762649.1187248,-8.695740429687499,2.2098481323242187,-6.749254479980468
1731762649.173813,-5.523423229980469,2.29843359375,-7.445967163085937
1731762649.2289286,-9.246406811523437,3.4093431640625,-7.709329345703124
1731762649.28404,-9.126696728515624,1.9608511596679685,-7.364564306640625
1731762649.339183,-8.039729174804688,4.11802685546875,-5.090072729492187
1731762649.3944566,-3.5769372802734374,3.1866824096679687,-3.181894006347656
1731762649.4499881,-5.2433016357421875,4.132392065429687,-1.7381904052734374
1731762649.5059378,-12.073958972167969,3.9624037475585934,-3.191470812988281
1731762649.5612392,-2.8012159423828122,2.3367408203125,-2.1883003173828124
1731762649.616523,-9.516951599121093,5.329492895507812,-0.7996633544921875
1731762649.6718452,-4.359841223144531,2.0087351928710935,-3.864241479492187
1731762649.72803,-10.31661495361328,6.885723974609375,-7.249642626953125
1731762649.7833831,-7.45075556640625,-4.010287780761718,14.264653491210936
1731762649.8386726,-8.836998327636719,6.586448767089843,-6.069301208496094
1731762649.893988,-9.327809667968749,-0.29448680419921874,-7.793126403808594
1731762649.9492493,-5.310339282226562,1.455674609375,-6.433219860839843
1731762650.0044127,-8.853757739257812,5.123591552734375,-6.404489440917969
1731762650.0595891,-7.510610607910156,2.501940734863281,-5.954379528808594
1731762650.1147,-5.461173986816406,3.0980969482421874,-4.261678955078125
1731762650.1697934,-7.996633544921875,5.2433016357421875,-3.189076611328125
1731762650.224833,-6.354211206054687,1.9608511596679685,-2.7557261108398436
1731762650.27997,-7.4603323730468745,3.5386300537109374,-2.4660277099609376
1731762650.33536,-4.958391638183594,3.411737365722656,-2.185906115722656
1731762650.3904836,-7.75721337890625,4.838681555175781,-1.3192051147460937
1731762650.445786,-4.733336682128906,2.1452046874999997,-5.358223315429687
1731762650.573681,-11.240776794433593,3.0837317382812497,-7.022193469238281
1731762650.6288466,-7.192181787109375,3.727771984863281,-7.184999182128906
1731762650.6839435,-10.347739575195313,2.9089550170898435,-8.626308581542968
1731762650.739041,-6.581660363769531,1.0749965454101562,-6.543353137207031
1731762650.7941859,-3.0262708984374997,2.9975404785156248,-2.2266075439453124
1731762650.849352,-10.486603271484375,4.764461303710937,-2.4851813232421875
1731762650.904531,-4.841075756835937,2.4971523315429685,-2.482787121582031
1731762650.959744,-6.758831286621094,4.740519287109374,-2.5737667846679684
1731762651.014894,-8.441955053710936,2.8107927490234372,-2.3965958618164063
1731762651.0701382,-2.4947581298828125,1.9967641845703124,-3.0358477050781247
1731762651.1252954,-5.312733483886719,4.489128112792969,-7.134720947265625
1731762651.1804538,-10.599130749511717,2.6791116577148437,-5.810727429199218
1731762651.235588,-6.306327172851562,1.2832920898437499,-6.744466076660156
1731762651.290747,-9.047688073730468,4.446032482910156,-7.615955480957031
1731762651.3459046,-5.394136340332031,2.4396914916992185,-7.709329345703124
1731762651.4010146,-9.557653027343749,3.0454245117187497,-6.265625744628906
1731762651.4561915,-6.737283471679687,2.9544448486328125,-3.8379052612304685
1731762651.5114107,-4.778826513671874,3.248931652832031,-3.478775012207031
1731762651.5666797,-9.404424121093749,4.673481640625,-1.6448165405273436
1731762651.6219149,-3.8762124877929685,2.9975404785156248,-1.254561669921875
1731762651.6771097,-9.028534460449219,3.957615344238281,-2.023100402832031
1731762651.732307,-4.46279189453125,2.817975354003906,-1.668758557128906
1731762651.7874675,-4.050989208984375,3.9336733276367184,-3.9504327392578125
1731762651.8426447,-8.453926062011718,3.2058360229492187,-6.600813977050781
1731762651.8958726,-8.748412866210938,1.467645617675781,-6.287173559570312
1731762651.9490752,-7.4603323730468745,2.779668127441406,-7.144297753906249
1731762652.0022724,-7.517793212890624,3.852270471191406,-7.091625317382812
1731762652.055459,-7.994239343261718,2.568978381347656,-8.257601525878906
1731762652.108683,-10.445901843261717,3.892971899414062,-6.909665991210937
1731762652.1619027,-1.254561669921875,0.93852705078125,-2.398990063476562
1731762652.2150908,-5.382165332031249,4.8506525634765625,-3.6463691284179687
1731762652.2682471,-10.053252770996092,4.735730883789063,-3.7995980346679685
1731762652.3214402,-3.81156904296875,2.2960393920898436,-1.8339584716796873
1731762652.3746347,-9.792284790039062,4.666299035644531,-2.1691467041015624
1731762652.4297357,-3.42849677734375,2.5953145996093747,-2.224213342285156
1731762652.4848359,-3.77326181640625,2.370259643554687,-5.161898779296875
1731762652.5399566,-11.942277880859374,3.816357446289062,-6.114791040039062
1731762652.595371,-5.834669445800781,2.379836450195312,-7.9846625366210935
1731762652.650549,-7.058106494140625,2.729389892578125,-6.366182214355469
1731762652.7056882,-4.9416322265625,1.7597382202148437,-7.656656909179687
1731762652.760931,-6.404489440917969,1.659181750488281,-7.644685900878906
1731762652.8161354,-15.116989282226562,4.951209033203125,-7.900865478515625
1731762652.8712885,-1.7166425903320313,1.13006318359375,-4.651933825683593
1731762652.9264376,-4.127603662109375,3.5793314819335937,-3.208230224609375
1731762652.981573,-8.772354882812499,4.76924970703125,-1.2306196533203124
1731762653.0367882,-4.9823336547851556,3.1579519897460937,-2.0159177978515626
1731762653.091988,-9.411606726074218,3.0334535034179684,-2.750937707519531
1731762653.1471362,-1.8722656982421875,2.31758720703125,-1.0414777221679687
1731762653.2022543,-5.384559533691406,3.9264907226562498,-7.038952880859375
1731762653.2574086,-10.83376251220703,3.4165257690429685,-8.228871105957031
1731762653.312569,-5.058948107910156,0.0909796630859375,-7.570465649414062
1731762653.367749,-7.848193041992187,4.031835595703125,-7.364564306640625
1731762653.422894,-5.681440539550781,2.760514514160156,-7.127538342285156
1731762653.477996,-10.613495959472656,2.616862414550781,-6.6702458251953125
1731762653.5330842,-5.501875415039062,1.2856862915039062,-4.989516259765625
1731762653.5882263,-2.6096798095703124,5.6766521362304685,-2.858676782226562
1731762653.6442726,-8.726865051269531,3.77326181640625,-2.8371289672851563
1731762653.69942,-7.7596075805664055,1.917755529785156,-2.5354595581054684
1731762653.754627,-5.805939025878906,5.741295581054687,-2.003946789550781
1731762653.8105505,-7.37414111328125,3.3159692993164063,-1.5873557006835937
1731762653.8660674,-3.5865140869140624,1.9201497314453124,-2.039859814453125
1731762653.9248004,-6.797138513183594,3.8235400512695312,-6.730100866699218
1731762653.9801502,-11.030087048339842,3.5218706420898434,-7.371746911621093
1731762654.0353448,-5.312733483886719,1.5418658691406248,-7.168239770507812
1731762654.093222,-7.438784558105469,3.1651345947265623,-6.593631372070312
1731762654.1484332,-8.173804467773436,3.766079211425781,-7.620743884277343
1731762654.203583,-8.573636145019531,2.3678654418945313,-7.524975817871093
1731762654.2587366,-5.528211633300781,2.8371289672851563,-5.2816088623046875
1731762654.31388,-1.218648645019531,3.921702319335937,-2.1906945190429687
1731762654.3690157,-13.596671228027343,3.845087866210937,-1.637633935546875
1731762654.4242368,-3.342305517578125,1.0917559570312498,-0.8547299926757812
1731762654.4793952,-9.782707983398437,6.9144543945312495,-1.9416975463867185
1731762654.534571,-6.579266162109374,1.4101847778320311,-1.7669208251953124
1731762654.5897496,-1.7453730102539062,2.422932080078125,-2.3343466186523436
1731762654.6449246,-9.260772021484375,3.5218706420898434,-6.5409589355468745
1731762654.70008,-9.823409411621093,2.6001030029296874,-7.204152795410156
1731762654.7553315,-5.691017346191406,2.01112939453125,-6.5409589355468745
1731762654.8104591,-6.983886242675781,3.5242648437499997,-6.995857250976562
1731762654.865552,-8.611943371582031,3.6152445068359373,-7.2903440551757805
1731762654.9207056,-9.907206469726562,-0.5027823486328125,-3.603273498535156
1731762654.9758682,-4.146757275390625,2.829946362304687,-5.7317187744140625
1731762655.0312142,-9.255983618164063,4.958391638183594,-3.584119885253906
1731762655.0863698,-11.463437548828125,7.630320690917968,-3.3446997192382812
1731762655.14155,-7.783549597167968,-4.592078784179687,-2.8131869506835936
1731762655.1966932,-6.619967590332031,5.157110375976562,-1.484405029296875
1731762655.251822,-7.115567333984375,7.960720520019531,-2.0446482177734375
1731762655.3069549,-6.002263562011718,-0.30406361083984373,-1.37906015625
1731762655.3620558,-3.1076737548828124,3.7924154296875,-3.545812658691406
1731762655.4171622,-9.885658654785155,4.209006518554688,-6.3901242309570305
1731762655.4704044,-9.528922607421874,2.1978771240234374,-6.667851623535156
1731762655.523574,-6.5577183471679685,1.3551181396484375,-7.596801867675781
1731762655.5767395,-10.27830772705078,4.218583325195312,-6.742071875
1731762655.6299293,-5.492298608398437,3.287238879394531,-5.990292553710937
1731762655.683129,-9.967061511230469,4.189852905273438,-5.104437939453125
1731762655.7362812,-4.2329485351562495,1.6472107421875,-2.3582886352539063
1731762655.7894714,-6.548141540527343,5.248090039062499,-2.0374656127929685
1731762655.8426404,-10.292672937011718,2.4133552734375,-1.649604943847656
1731762655.8957639,-5.973533142089844,3.69664736328125,-0.9959878906249999
1731762655.9489706,-8.564059338378906,4.438849877929687,-1.2114660400390624
1731762656.0021694,-6.706158850097656,2.645592834472656,-0.6440402465820312
1731762656.0553415,-4.261678955078125,3.421314172363281,-1.8124106567382812
1731762656.1085553,-6.9360022094726554,2.674323254394531,-5.762843395996094
1731762656.1637466,-8.59997236328125,3.3207577026367185,-7.589619262695312
1731762656.218843,-8.91840118408203,2.540247961425781,-7.3861121215820305
1731762656.2740216,-5.643133312988281,2.9185318237304685,-7.194575988769531
1731762656.329165,-10.644620581054687,4.077325427246094,-8.13310303955078
1731762656.3843582,-8.695740429687499,2.7246014892578123,-7.920019091796875
1731762656.4394827,-2.3535002319335936,2.6958710693359373,-2.5522189697265625
1731762656.494665,-5.106832141113281,3.366247534179687,-1.3551181396484375
1731762656.550078,-10.012551342773437,3.9528269409179684,-2.1619640991210938
1731762656.6053007,-6.890512377929687,3.69664736328125,-1.4508862060546874
1731762656.6604114,-7.48906279296875,3.632003918457031,-1.3239935180664062
1731762656.7156045,-6.655880615234374,2.6431986328124997,-1.0773907470703123
1731762656.7707644,-2.5043349365234375,3.612850305175781,-2.4851813232421875
1731762656.8259757,-8.238447912597655,2.8419173706054686,-6.337451794433593
1731762656.8811064,-10.697293017578124,2.5258827514648434,-7.015010864257812
1731762656.9362955,-6.888118176269531,2.2768857788085937,-7.036558679199218
1731762656.9915028,-5.6766521362304685,3.399766357421875,-6.766013891601562
1731762657.0466661,-8.226476904296874,3.210624426269531,-7.42441934814453
1731762657.1055772,-10.711658227539061,2.789244934082031,-6.452373474121093
1731762657.1607711,-7.4220251464843745,2.8610709838867185,-4.587290380859375
1731762657.2159555,-2.0542250244140625,3.3494881225585935,-0.7493851196289062
1731762657.2711263,-7.211335400390625,5.5545478515625,-2.4779987182617185
1731762657.326299,-10.340556970214843,1.6903063720703124,-1.668758557128906
1731762657.3814385,-4.508281726074219,4.4005426513671875,-1.158793603515625
1731762657.4365592,-9.974244116210937,4.661510632324219,-1.8243816650390623
1731762657.491715,-2.8706477905273435,0.9840168823242187,-0.7517793212890624
1731762657.5468502,-5.928043310546875,3.2609026611328122,-5.7149593627929685
1731762657.6019325,-12.157756030273436,4.350264416503906,-6.904877587890625
1731762657.6571066,-5.142745166015625,0.3064578125,-6.289567761230469
1731762657.7123168,-9.974244116210937,3.845087866210937,-7.077260107421875
1731762657.767504,-6.308721374511719,2.482787121582031,-7.769184387207031
1731762657.8226411,-14.044386938476562,3.787627026367187,-8.2360537109375
1731762657.8778014,-3.1603461914062496,1.2425906616210938,-5.111620544433594
1731762657.9329402,-3.1459809814453124,4.3813890380859375,-1.3192051147460937
1731762657.9880764,-8.377311608886718,4.6064439941406246,-1.879448303222656
1731762658.0432973,-9.327809667968749,1.3455413330078123,-2.27927998046875
1731762658.0984385,-6.667851623535156,5.03740029296875,-1.6065093139648436
1731762658.153647,-6.842628344726562,3.679887951660156,-1.2378022583007813
1731762658.208842,-3.6367923217773437,1.3407529296874998,-2.085349645996094
1731762658.2639873,-7.785943798828124,2.6048914062499997,-6.9360022094726554
1731762658.3191242,-9.143456140136719,3.0813375366210938,-8.547299926757812
1731762658.3742247,-8.963891015625,2.346317626953125,-6.974309436035155
1731762658.429421,-5.406107348632812,3.488351818847656,-7.455543969726562
1731762658.4845488,-10.350133776855468,4.103661645507812,-7.52737001953125
1731762658.5396843,-10.01733974609375,1.2665326782226562,-6.445190869140625
1731762658.594742,-3.4069489624023435,2.47081611328125,-1.9728221679687499
1731762658.6498318,0.430956298828125,5.269637854003906,0.24181436767578124
1731762658.7050478,-13.76426534423828,3.907337109375,-2.710236279296875
1731762658.7602553,-7.175422375488281,0.13168109130859373,-1.8243816650390623
1731762658.8153653,-6.469132885742187,5.662286926269531,-0.8188169677734375
1731762658.870469,-1.4604630126953124,2.1164742675781247,-2.118868469238281
1731762658.925584,-7.752424975585937,2.2960393920898436,-6.344634399414062
1731762658.9807525,-11.513715783691406,3.35188232421875,-8.48505068359375
1731762659.0359032,-7.4579381713867186,1.637633935546875,-7.750030773925781
1731762659.089281,-5.1882349975585935,2.9281086303710935,-6.768408093261718
1731762659.142631,-8.449137658691406,3.9887399658203124,-7.867346655273437
1731762659.196048,-9.947907897949218,1.5610194824218748,-7.505822204589843
1731762659.2494903,-7.0078282592773435,2.1811177124023438,-4.405331054687499
1731762659.3028438,0.3854664672851562,4.225765930175781,-1.1324573852539062
1731762659.3561852,-8.980650427246093,6.119579443359375,-1.4939818359375
1731762659.4095576,-9.967061511230469,0.17956512451171874,-2.6910826660156246
1731762659.4630113,-6.337451794433593,4.843469958496094,-1.2713210815429687
1731762659.5166736,-5.671863732910156,4.5322237426757805,-1.1252747802734375
1731762659.57003,-5.068524914550781,1.5729904907226562,-2.059013427734375
1731762659.6234338,-7.208941198730468,2.825157958984375,-5.710170959472656
1731762659.676831,-7.455543969726562,2.858676782226562,-7.747636572265624
1731762659.7302268,-10.544064111328124,3.2800562744140622,-7.161057165527343
1731762659.7836585,-5.267243652343749,1.7741034301757812,-6.572083557128906
1731762659.8369865,-6.5601125488281244,3.5003228271484375,-6.7803791015625
1731762659.8903232,-9.162609753417968,2.9448680419921875,-8.104372619628906
1731762659.943673,-9.670180505371093,1.3239935180664062,-6.8402341430664055
1731762659.997455,-2.3247698120117186,3.440467785644531,-2.185906115722656
1731762660.0508704,-5.954379528808594,4.84586416015625,-1.7884686401367187
1731762660.1061664,-10.644620581054687,2.877830395507812,-2.980781066894531
1731762660.1614392,-5.9376201171875,3.2920272827148436,-1.9943699829101562
1731762660.2170322,-7.196970190429687,4.412513659667969,-1.93451494140625
1731762660.2737842,-4.766855505371093,2.703053674316406,-1.8435352783203125
1731762660.3289814,-4.953603234863281,2.568978381347656,-5.95677373046875
1731762660.384255,-10.563217724609375,3.105279553222656,-7.252036828613281
1731762660.4394264,-6.888118176269531,1.37906015625,-6.950367419433594
1731762660.4945922,-7.783549597167968,2.6312276245117188,-6.797138513183594
1731762660.5497105,-6.4475850708007805,3.6487633300781246,-6.924031201171875
1731762660.6050494,-10.71884083251953,2.6240450195312497,-8.243236315917969
1731762660.6601987,-5.973533142089844,2.6384102294921874,-5.691017346191406
1731762660.71535,-4.563348364257812,3.0741549316406247,-1.2473790649414063
1731762660.7707038,-5.928043310546875,3.6822821533203123,-2.0374656127929685
1731762660.8259113,-9.083601098632812,3.3638533325195312,-2.080561242675781
1731762660.881018,-6.481103894042969,3.9647979492187497,-1.7429788085937499
1731762660.9361563,-7.268796240234375,4.149151477050781,-1.687912170410156
1731762660.991323,-4.673481640625,2.4109610717773435,-2.2385785522460937
1731762661.0465517,-6.461950280761719,2.549824768066406,-5.832275244140624
1731762661.1017647,-11.183315954589844,3.6559459350585937,-6.449979272460937
1731762661.1569095,-6.160280871582031,1.9632453613281249,-6.241683728027343
1731762661.211998,-7.149086157226562,3.660734338378906,-6.770802294921874
1731762661.2672048,-6.581660363769531,1.7501614135742187,-7.161057165527343
1731762661.322334,-10.091559997558592,3.3207577026367185,-8.137891442871092
1731762661.377434,-8.614337573242187,3.6080619018554687,-6.469132885742187
1731762661.4325647,-0.6416460449218749,1.4413093994140624,-2.8898014038085935
1731762661.4877014,-10.005368737792969,4.522646936035156,-1.927332336425781
1731762661.5429752,-5.334281298828125,3.289633081054687,-1.4341267944335936
1731762661.5981536,-7.807491613769531,4.513070129394531,-1.9680337646484374
1731762661.6534848,-8.02536396484375,2.7341782958984373,-1.448492004394531
1731762661.7089016,-2.3415292236328122,3.220201232910156,-2.4061726684570313
1731762661.764066,-8.532934716796875,3.35188232421875,-5.425260961914062
1731762661.8192089,-8.748412866210938,2.205059729003906,-7.319074475097656
1731762661.8743389,-6.593631372070312,1.7788918334960937,-7.728482958984374
1731762661.9294877,-9.318232861328125,4.053383410644531,-7.019799267578125
1731762661.9846647,-4.503493322753906,1.3670891479492187,-7.558494641113281
1731762662.0397954,-10.460267053222656,3.0837317382812497,-7.505822204589843
1731762662.094924,-7.278373046874999,1.924938134765625,-6.047753393554687
1731762662.1501482,-3.4548329956054684,1.637633935546875,-3.210624426269531
1731762662.2052603,-7.043741284179687,6.8593877563476555,-2.214636535644531
1731762662.2603812,-5.741295581054687,4.335899206542969,-2.729389892578125
1731762662.3155396,-8.779537487792968,0.4572925170898437,-2.530671154785156
1731762662.3706315,-4.697423657226563,4.620809204101562,-1.7357962036132812
1731762662.425756,-5.853823059082031,4.417302062988281,-3.8187516479492185
1731762662.4808757,-7.560888842773437,1.5179238525390624,-6.517016918945312
1731762662.5359905,-8.087613208007811,1.66636435546875,-6.8402341430664055
1731762662.591035,-8.142679846191406,3.2441432495117186,-7.015010864257812
1731762662.64613,-4.261678955078125,2.090138049316406,-6.864176159667968
1731762662.7011962,-8.748412866210938,2.5905261962890624,-7.271190441894531
1731762662.7563038,-10.450690246582031,3.1004911499023438,-8.085219006347655
1731762662.8113842,-3.758896606445312,0.040701428222656245,-4.989516259765625
1731762662.8665197,-8.628702783203124,4.647145422363281,-3.4452561889648434
1731762662.9216678,-3.632003918457031,4.455609289550781,-1.917755529785156
1731762662.9768593,-6.742071875,4.582501977539062,-1.9704279663085937
1731762663.0319972,-9.469067565917967,1.5394716674804687,-2.8730419921875
1731762663.0874102,-4.333505004882812,4.8698061767578125,-1.2425906616210938
1731762663.1426637,-4.127603662109375,3.881000891113281,-3.0933085449218747
1731762663.1978312,-9.1554271484375,1.8219874633789062,-7.168239770507812
1731762663.2529771,-7.613561279296874,0.8188169677734375,-5.820304235839844
1731762663.3081546,-7.572859851074218,3.0166940917968748,-7.484274389648437
1731762663.363277,-6.696582043457031,1.9991583862304687,-7.161057165527343
1731762663.418368,-4.929661218261718,1.3455413330078123,-6.873752966308594
1731762663.4716067,-9.038111267089842,3.5506010620117183,-8.992621435546875
1731762663.524788,-11.52329259033203,2.4205378784179685,-8.116343627929687
1731762663.5798833,-2.6431986328124997,-0.105344873046875,-4.3071687866210935
1731762663.635086,-2.81558115234375,5.284003063964843,-3.0454245117187497
1731762663.6902356,-12.816161486816405,5.377376928710937,-3.2345664428710936
1731762663.7453842,-4.44363828125,-0.11731588134765625,-2.5474305664062498
1731762663.8005729,-8.24802471923828,5.798756420898437,-2.3439234252929686
1731762663.8557606,-6.234501123046875,3.4332851806640625,-2.482787121582031
1731762663.910886,-4.599261389160156,2.5617957763671875,-2.0733786376953125
1731762663.9661415,-6.3709706176757805,3.4811692138671875,-4.364629626464843
1731762664.0213058,-7.0652890991210935,3.1651345947265623,-7.034164477539062
1731762664.0764663,-8.339004382324218,1.4508862060546874,-7.237671618652343
1731762664.1315928,-6.019022973632812,1.6831237670898436,-7.264007836914062
1731762664.1868114,-1.9991583862304687,3.6391865234374996,-5.9400143188476555
1731762664.24197,-7.455543969726562,3.047818713378906,-8.291120349121094
1731762664.2972014,-13.204022155761718,3.2321722412109373,-8.441955053710936
1731762664.3523297,-0.21068974609375,-2.346317626953125,-4.759672900390624
1731762664.4074848,-6.284779357910156,6.801926916503906,-2.4875755249023435
1731762664.4626434,-5.659892724609374,3.066972326660156,-2.5163059448242184
1731762664.517809,-10.335768566894531,3.1507693847656246,-2.9089550170898435
1731762664.5729654,-6.301538769531249,3.5098996337890624,-2.5474305664062498
1731762664.6280668,-7.0078282592773435,4.752490295410156,-2.6312276245117188
1731762664.6832094,-5.528211633300781,1.8842367065429686,-1.5370774658203123
1731762664.7383628,-5.293579870605469,3.009511486816406,-4.479551306152343
1731762664.7935166,-8.82981572265625,3.5506010620117183,-6.754042883300781
1731762664.8486695,-7.129932543945312,1.20667763671875,-7.704540942382812
1731762664.9038064,-8.508992700195313,2.568978381347656,-6.777984899902344
1731762664.9589198,-4.843469958496094,2.3391350219726563,-6.303932971191406
1731762665.0141194,-8.188169677734374,3.143586779785156,-7.685387329101562
1731762665.0692537,-10.843339318847656,2.2290017456054687,-7.522581616210937
1731762665.1244032,-3.478775012207031,0.7685387329101562,-6.047753393554687
1731762665.1795166,-3.6248213134765623,4.92247861328125,-2.2026655273437497
1731762665.2345998,-7.960720520019531,3.7924154296875,-2.195482922363281
1731762665.2896724,-6.8593877563476555,3.1076737548828124,-2.7174188842773437
1731762665.3450825,-8.717288244628906,3.737348791503906,-2.5474305664062498
1731762665.4003215,-4.7884033203125,3.2561142578125,-0.7852981445312499
1731762665.455454,-3.861847277832031,2.999934680175781,-3.308786694335937
1731762665.5105686,-10.259154113769531,4.256890551757812,-5.9974751586914055
1731762665.5656765,-6.76122548828125,1.2282254516601563,-7.429207751464843
1731762665.6207438,-8.334215979003906,3.19865341796875,-7.1203557373046875
1731762665.675815,-4.771643908691406,1.89620771484375,-6.718129858398437
1731762665.7309277,-8.688557824707031,3.9145197143554684,-8.623914379882812
1731762665.7861135,-8.348581188964843,0.8307879760742187,-7.189787585449218
1731762665.8412569,-5.046977099609375,-1.1228805786132812,-2.6910826660156246
1731762665.8963604,-6.624755993652343,5.623979699707031,-3.9336733276367184
1731762665.9515011,-7.1035963256835934,4.678270043945313,-2.360682836914062
1731762666.0066693,1.9297265380859374,8.95670841064453,-4.599261389160156
1731762666.0618293,-12.255918298339843,1.5658078857421873,-4.189852905273438
1731762666.1170812,-4.874594580078124,-0.7733271362304687,-1.8028338500976562
1731762666.172287,-4.357447021484375,6.222530114746093,-3.5960908935546874
1731762666.2274148,-8.197746484375,4.477157104492187,-6.050147595214844
1731762666.2826068,-5.607220288085937,-0.48123453369140623,-6.385335827636719
1731762666.3377516,-8.137891442871092,2.1739351074218747,-7.220912207031249
1731762666.3909428,-9.428366137695312,4.000710974121094,-7.56567724609375
1731762666.444123,-3.347093920898437,1.4628572143554686,-6.208164904785156
1731762666.4973135,-9.49300958251953,2.89219560546875,-6.768408093261718
1731762666.5504754,-11.822567797851562,2.463633508300781,-6.6510922119140625
1731762666.603681,-1.4724340209960938,2.310404602050781,-4.328716601562499
1731762666.6568837,-6.442796667480469,4.99909306640625,-3.287238879394531
1731762666.712006,-8.710105639648438,3.806780639648437,-2.6503812377929687
1731762666.7671373,-7.711723547363281,0.9792284790039062,-2.422932080078125
1731762666.82226,-5.533000036621093,5.487510205078125,-1.6831237670898436
1731762666.8774028,-7.218518005371093,3.5314474487304683,-1.7645266235351562
1731762666.9326665,-5.97592734375,1.3311761230468748,-2.5067291381835934
1731762666.9878519,-7.481880187988281,2.8562825805664063,-5.272032055664062
1731762667.0429747,-8.142679846191406,3.2345664428710936,-6.742071875
1731762667.0981026,-9.45470235595703,2.528276953125,-6.385335827636719
1731762667.1532094,-3.526659045410156,1.2641384765625,-6.682216833496093
1731762667.2083719,-9.246406811523437,4.273649963378906,-6.1267620483398435
1731762667.2635264,-10.101136804199218,1.8411410766601561,-6.177040283203125
1731762667.3186667,-10.63025537109375,3.258508459472656,-5.963956335449218
1731762667.3738353,-0.1580173095703125,2.8562825805664063,-2.437297290039062
1731762667.4289453,-8.374917407226562,5.446808776855469,-1.9608511596679685
1731762667.4840908,-7.912836486816405,0.7948749511718749,-1.8722656982421875
1731762667.5391881,-8.78432589111328,3.8953661010742184,-1.407790576171875
1731762667.5942676,-6.028599780273437,4.714183068847656,-1.3024457031249999
1731762667.649396,-7.570465649414062,1.6543933471679686,-4.223371728515625
1731762667.7045274,-7.819462622070312,3.88818349609375,-4.378994836425781
1731762667.759659,-8.494627490234375,5.710170959472656,-3.8379052612304685
1731762667.8148005,-4.197035510253906,0.74699091796875,-2.262520568847656
1731762667.8699675,-10.70686982421875,1.7669208251953124,-5.485116003417969
1731762667.9252071,-6.833051538085937,3.2561142578125,-6.995857250976562
1731762667.9803786,-6.37815322265625,3.7612908081054686,-6.205770703124999
1731762668.0355036,-7.503428002929687,2.3415292236328122,-6.011840368652344
1731762668.090627,-13.666103076171874,1.2210428466796874,-5.643133312988281
1731762668.1457267,-4.395754248046875,0.9074024291992187,-4.857835168457031
1731762668.2009048,-7.113173132324218,5.9950809570312495,-1.687912170410156
1731762668.2560077,-4.659116430664063,2.9831752685546875,-1.85790048828125
1731762668.3110602,-11.073182678222656,0.469263525390625,-2.597708801269531
1731762668.3661535,-5.386953735351562,3.660734338378906,-2.090138049316406
1731762668.4212995,-8.319850769042969,4.57771357421875,-2.5953145996093747
1731762668.4764447,-3.5386300537109374,0.9792284790039062,-3.775656018066406
1731762668.53156,-8.93755479736328,3.737348791503906,-6.246472131347656
1731762668.5867176,-8.55448253173828,0.9097966308593749,-7.580042456054687
1731762668.6418166,-9.330203869628905,1.7764976318359373,-6.986280444335937
1731762668.6969633,-7.510610607910156,3.2609026611328122,-6.87614716796875
1731762668.752081,-10.32379755859375,1.5442600708007812,-6.658274816894531
1731762668.8072546,-6.7037646484375,1.8602946899414061,-3.778050219726562
1731762668.8623984,-4.005499377441406,3.303998291015625,-2.090138049316406
1731762668.917568,-8.32463917236328,3.1938650146484373,-0.6775590698242188
1731762668.9726987,-8.226476904296874,1.9704279663085937,-0.9433154541015625
1731762669.0278757,-6.746860278320312,3.394977954101562,-0.4908113403320312
1731762669.0830483,-2.50912333984375,2.3439234252929686,-4.034229797363281
1731762669.1382341,-8.228871105957031,3.3542765258789062,-7.271190441894531
1731762669.1933875,-11.552023010253906,1.3287819213867187,-7.536946826171874
1731762669.248496,-4.797980126953124,1.7669208251953124,-6.619967590332031
1731762669.3035715,-6.224924316406249,3.5625720703124997,-5.827486840820312
1731762669.3586967,-5.95677373046875,2.9640216552734375,-6.797138513183594
1731762669.4139054,-7.735665563964844,0.47165772705078124,-7.362170104980469
1731762669.469037,-13.491326354980467,2.6671406494140624,-8.717288244628906
1731762669.524238,-2.7365724975585937,1.5394716674804687,-6.854599353027344
1731762669.5793567,-5.473144995117187,3.0262708984374997,-1.889025109863281
1731762669.6346245,-6.217741711425781,3.1938650146484373,-1.936909143066406
1731762669.689769,-6.68461103515625,3.323151904296875,-1.388636962890625
1731762669.744929,-7.3837179199218745,2.1739351074218747,-2.319981408691406
1731762669.800122,-5.540182641601562,1.89620771484375,-2.1499930908203124
1731762669.8552735,-4.637568615722656,2.540247961425781,-5.729324572753906
1731762669.9106033,-11.532869396972655,3.7612908081054686,-8.566453540039062
1731762669.9638507,-6.4475850708007805,-0.229843359375,-7.343016491699219
1731762670.0170314,-6.059724401855468,1.8267758666992187,-6.619967590332031
1731762670.0701854,-6.179434484863281,3.864241479492187,-6.845022546386718
1731762670.1233566,-10.503362683105468,4.266467358398438,-9.579200842285156
1731762670.1765594,-9.983820922851562,-2.0925322509765625,-8.188169677734374
1731762670.2297683,-2.1308394775390624,2.1452046874999997,-3.375824340820312
1731762670.2848513,-5.03740029296875,6.701370446777343,-1.39821376953125
1731762670.339994,-9.87608184814453,1.9608511596679685,-2.2673089721679687
1731762670.3950922,-7.568071447753906,1.448492004394531,-1.6448165405273436
1731762670.4501793,-7.704540942382812,4.88417138671875,-1.5107412475585937
1731762670.505269,-6.117185241699218,1.3910311645507811,-0.97683427734375
1731762670.5604424,-4.5585599609375,2.3726538452148436,-3.356670727539062
1731762670.6159375,-8.528146313476562,3.227383837890625,-7.175422375488281
1731762670.6711922,-8.726865051269531,1.6232687255859375,-7.297526660156249
1731762670.7269847,-7.539341027832031,1.2282254516601563,-7.132326745605468
1731762670.7822871,-6.114791040039062,2.626439221191406,-6.610390783691406
1731762670.8375468,-5.674257934570313,2.844311572265625,-7.297526660156249
1731762670.8928382,-14.113818786621094,4.3622354248046875,-8.322244970703125
1731762670.948087,-5.667075329589843,-2.5330653564453125,-6.100425830078125
1731762671.0033572,-2.8730419921875,3.6727053466796873,-3.430890979003906
1731762671.058547,-7.505822204589843,6.524199523925781,-1.5322890624999999
1731762671.1136546,-6.581660363769531,0.8690952026367187,-1.8076222534179687
1731762671.168818,-9.572018237304688,2.602497204589844,-2.2266075439453124
1731762671.2243743,-6.054935998535156,2.7533319091796873,-0.9816226806640624
1731762671.2795646,-2.1404162841796874,2.4684219116210935,-3.1675287963867187
1731762671.334722,-11.40837091064453,4.065354418945312,-7.472303381347656
1731762671.3898063,-9.234435803222656,-0.00239420166015625,-6.9168485961914055
1731762671.4449954,-6.0525417968749995,1.5969325073242187,-7.44357296142578
1731762671.5001435,-8.520963708496094,3.5242648437499997,-6.418854650878906
1731762671.5553343,-6.849810949707031,2.319981408691406,-7.175422375488281
1731762671.6105342,-14.132972399902343,2.626439221191406,-8.238447912597655
1731762671.665653,-0.9145850341796874,-0.4572925170898437,-3.1220389648437497
1731762671.7207994,-6.330269189453125,5.7149593627929685,-1.4987702392578124
1731762671.7759507,-6.806715319824218,3.0813375366210938,-1.8004396484374998
1731762671.8310628,-8.25520732421875,1.9919757812499999,-2.099714855957031
1731762671.8862011,-7.45075556640625,3.4620156005859375,-1.5658078857421873
1731762671.941407,-4.050989208984375,3.0526071166992184,-1.3335703247070312
1731762671.99658,-2.674323254394531,2.568978381347656,-5.480327600097656
1731762672.0519145,-12.368445776367187,3.35188232421875,-8.705317236328124
1731762672.1071417,-8.228871105957031,0.13168109130859373,-7.867346655273437
1731762672.162326,-6.1842228881835934,2.099714855957031,-6.868964562988281
1731762672.2174702,-7.620743884277343,4.515464331054687,-7.3094976684570305
1731762672.272602,-10.096348400878906,2.597708801269531,-9.038111267089842
1731762672.3276913,-8.650250598144531,-0.7230489013671875,-6.919242797851562
1731762672.3828266,-2.3032219970703123,2.4588451049804685,-2.0087351928710935
1731762672.4381354,-5.80354482421875,8.027758166503906,-0.6631938598632812
1731762672.49328,-9.193734375,0.0,-1.6328455322265625
1731762672.5484362,-8.099584216308592,2.8323405639648436,-1.2306196533203124
1731762672.6036785,-6.418854650878906,4.2688615600585935,-0.7589619262695312
1731762672.658849,-2.4301146850585935,1.5562310791015623,-2.5546131713867184
1731762672.7140133,-10.419565624999999,2.942473840332031,-8.40843623046875
1731762672.7692192,-10.386046801757812,1.2497732666015624,-8.149862451171874
1731762672.8243294,-6.062118603515625,0.9816226806640624,-7.070077502441406
1731762672.8794813,-6.945579016113281,3.8187516479492185,-6.907271789550781
1731762672.934579,-9.840168823242188,3.411737365722656,-7.788338000488281
1731762672.98967,-9.0788126953125,0.2920926025390625,-7.132326745605468
1731762673.044782,-5.6024318847656245,1.2234370483398436,-3.5984850952148437
1731762673.0999146,-3.0430303100585934,6.177040283203125,-0.8020575561523438
1731762673.1550608,-7.369352709960937,3.864241479492187,-0.7445967163085937
1731762673.2082744,-9.114725720214842,0.6081272216796875,-1.7812860351562498
1731762673.2614248,-4.407725256347656,3.4763808105468748,-0.7757213378906249
1731762673.316531,-1.254561669921875,2.511517541503906,-4.158728283691406
1731762673.3717294,-14.144943408203124,4.453215087890625,-8.98304462890625
1731762673.4269066,-9.402029919433593,-0.5985504150390625,-7.9463553100585935
1731762673.482013,-6.555324145507812,1.649604943847656,-6.732495068359374
1731762673.537108,-9.892841259765625,5.662286926269531,-7.682993127441406
1731762673.5922568,-7.345410693359375,0.40222587890625,-7.074865905761718
1731762673.6473408,-6.6510922119140625,1.5179238525390624,-3.191470812988281
1731762673.7024243,-5.95677373046875,5.80354482421875,-1.2378022583007813
1731762673.757576,-3.4261025756835934,3.5984850952148437,-0.4429273071289062
1731762673.812727,-11.528080993652344,2.645592834472656,-2.2194249389648437
1731762673.867861,-7.115567333984375,1.8052280517578123,-1.180341418457031
1731762673.9229965,-5.655104321289063,4.929661218261718,-0.6177040283203125
1731762673.9781542,-5.671863732910156,2.1116858642578125,-3.4620156005859375
1731762674.033245,-9.143456140136719,2.4684219116210935,-6.517016918945312
1731762674.0883632,-9.229647399902344,2.133233679199219,-6.603208178710937
1731762674.143492,-5.992686755371094,1.2569558715820313,-5.887341882324218
1731762674.1985888,-6.64630380859375,2.81558115234375,-6.311115576171875
1731762674.2536662,-6.5960255737304685,1.9967641845703124,-6.248866333007812
1731762674.3087878,-8.336610180664062,2.1499930908203124,-7.484274389648437
1731762674.3639429,-12.145785021972655,2.729389892578125,-7.951143713378905
1731762674.4190805,-3.754108203125,-0.062249243164062495,-5.896918688964844
1731762674.4742029,-7.048529687499999,3.9624037475585934,-2.0781670410156248
1731762674.5293355,-3.5410242553710933,4.860229370117187,-1.4317325927734375
1731762674.5844247,-11.348515869140625,2.327164013671875,-1.9704279663085937
1731762674.6395507,-5.882553479003906,0.8475473876953125,-2.166752502441406
1731762674.694666,-6.246472131347656,4.204218115234375,-2.3918074584960936
1731762674.7508674,-7.37414111328125,2.607285607910156,-5.046977099609375
1731762674.80608,-7.989450939941406,1.3144167114257812,-6.337451794433593
1731762674.861259,-8.635885388183594,1.848323681640625,-6.919242797851562
1731762674.9164042,-5.607220288085937,1.3048399047851562,-6.035782385253906
1731762674.9715836,-7.467514978027343,3.227383837890625,-6.6151791870117185
1731762675.0267012,-7.826645227050781,2.24097275390625,-7.390900524902343
1731762675.0818124,-11.291055029296874,1.5682020874023437,-7.972691528320312
1731762675.1369457,-6.1818286865234375,1.0079588989257813,-6.1076084350585935
1731762675.192051,-2.85388837890625,3.699041564941406,-3.0023288818359375
1731762675.2471836,-7.68059892578125,4.3071687866210935,-2.1116858642578125
1731762675.3022914,-8.588001354980468,1.1516109985351561,-2.1595698974609374
1731762675.357422,-7.4579381713867186,2.3415292236328122,-2.27927998046875
1731762675.4125473,-7.831433630371094,4.04141240234375,-1.5370774658203123
1731762675.4676116,-3.660734338378906,1.62805712890625,-2.3630770385742186
1731762675.5226822,-7.484274389648437,3.2704794677734372,-4.805162731933594
1731762675.5777664,-10.412383020019531,2.461239306640625,-6.883329772949218
1731762675.6329548,-8.453926062011718,0.45968671875,-6.809109521484374
1731762675.6880918,-6.279990954589843,1.8722656982421875,-6.344634399414062
1731762675.7432852,-5.932831713867187,4.189852905273438,-5.453991381835937
1731762675.7983997,-5.906495495605468,3.361459130859375,-5.813121630859374
1731762675.853589,-8.099584216308592,1.4006079711914061,-7.711723547363281
1731762675.9087381,-16.029180114746094,2.233790148925781,-6.0908490234374995
1731762675.9639401,0.36391865234375,-1.149216796875,-3.6056677001953124
1731762676.019072,-4.6830584472656245,6.811503723144531,-3.7804444213867185
1731762676.074186,-14.240711474609375,4.529829541015625,-2.5737667846679684
1731762676.1292973,-2.674323254394531,-2.0063409912109376,-1.4628572143554686
1731762676.1844893,-13.103465686035156,5.255272644042968,-2.7054478759765623
1731762676.237852,-3.9312791259765625,1.8411410766601561,-0.7565677246093749
1731762676.2912278,-3.0238766967773434,2.559401574707031,-3.794809631347656
1731762676.344586,-8.552088330078124,3.1076737548828124,-6.751648681640624
1731762676.3980067,-9.643844287109374,0.5770026000976562,-6.375759020996093
1731762676.4514875,-8.022969763183593,1.350329736328125,-7.173028173828125
1731762676.5048752,-6.624755993652343,2.3415292236328122,-6.509834313964843
1731762676.5582156,-5.6383449096679685,2.6719290527343746,-6.301538769531249
1731762676.6116214,-9.904812268066406,3.31357509765625,-8.190563879394531
1731762676.6649864,-12.86404552001953,-0.19632453613281248,-7.146691955566406
1731762676.7183294,-1.9488801513671874,1.216254443359375,-2.4660277099609376
1731762676.771716,-5.487510205078125,6.308721374511719,-0.9816226806640624
1731762676.8250527,-10.268730920410155,3.5218706420898434,-0.9552864624023437
1731762676.8784673,-7.498639599609374,-0.1580173095703125,-1.6424223388671875
1731762676.9318888,-8.990227233886719,3.7229835815429686,-1.68551796875
1731762676.9852278,-7.429207751464843,2.73896669921875,-1.9847931762695312
1731762677.038868,-6.100425830078125,1.5442600708007812,-1.8171990600585937
1731762677.0923324,-5.506663818359375,3.153163586425781,-4.321533996582031
1731762677.1458783,-9.897629663085937,1.8100164550781248,-6.232106921386718
1731762677.199202,-9.342174877929686,0.22026655273437498,-6.825868933105468
1731762677.2524843,-5.087678527832031,1.5418658691406248,-5.968744738769531
1731762677.305718,-7.015010864257812,2.7916391357421872,-6.536170532226562
1731762677.3608527,-7.613561279296874,1.2425906616210938,-6.849810949707031
1731762677.4160914,-9.251195214843749,0.4070142822265625,-7.086836914062499
1731762677.4712784,-5.240907434082031,1.1420341918945311,-6.289567761230469
1731762677.5264628,-10.149020837402343,3.5673604736328124,-4.479551306152343
1731762677.5816066,-4.067748620605468,2.128445275878906,-3.181894006347656
1731762677.636725,-7.75721337890625,4.031835595703125,-2.27927998046875
1731762677.691859,-8.973467822265624,1.9297265380859374,-2.142810485839844
1731762677.747212,-5.805939025878906,3.086125939941406,-1.8028338500976562
1731762677.80242,-7.762001782226562,2.906560815429687,-1.2306196533203124
1731762677.857566,-6.186617089843749,3.394977954101562,-0.55545478515625
1731762677.9126935,-7.656656909179687,2.5139117431640625,-4.886565588378906
1731762677.9678538,-8.655039001464843,0.9840168823242187,-6.687005236816406
1731762678.0232906,-8.020575561523437,1.695094775390625,-6.873752966308594
1731762678.0784345,-6.900089184570312,2.250549560546875,-6.160280871582031
1731762678.133609,-5.0948611328124995,1.2928688964843749,-6.215347509765625
1731762678.1887252,-9.05965908203125,2.7748797241210936,-6.667851623535156
1731762678.2473195,-13.192051147460937,0.39743747558593745,-6.48589229736328
1731762678.302462,-4.410119458007812,1.189918225097656,-4.053383410644531
1731762678.3577619,-5.580884069824219,5.142745166015625,-2.6384102294921874
1731762678.4129817,-6.083666418457031,2.9376854370117185,-1.9823989746093749
1731762678.4681296,-11.281478222656249,1.8770541015625,-2.612074011230469
1731762678.5232916,-7.003039855957031,2.6575638427734374,-1.369483349609375
1731762678.5784214,-6.528987927246093,3.5817256835937497,-1.5729904907226562
1731762678.6335828,-6.811503723144531,2.5067291381835934,-2.8514941772460936
1731762678.6887336,-5.475539196777343,2.808398547363281,-4.304774584960938
1731762678.7438524,-8.403647827148436,2.616862414550781,-6.9527616210937495
1731762678.7989023,-8.975862023925782,0.584185205078125,-6.9719152343749995
1731762678.8540838,-6.394912634277343,2.099714855957031,-6.775590698242187
1731762678.9094622,-6.45476767578125,2.8419173706054686,-6.6702458251953125
1731762678.9646935,-6.660669018554687,1.8626888916015625,-6.6510922119140625
1731762679.0198307,-11.176133349609374,2.43250888671875,-8.020575561523437
1731762679.0749338,-6.9336080078124995,-0.28012159423828126,-6.864176159667968
1731762679.1301234,-3.8570588745117185,3.687070556640625,-2.6527754394531247
1731762679.1853232,-5.884947680664062,4.987122058105468,-2.109291662597656
1731762679.240463,-9.739612353515625,1.8938135131835936,-2.4061726684570313
1731762679.29558,-8.307879760742187,1.8243816650390623,-1.9105729248046874
1731762679.3507218,-6.526593725585937,4.3454760131835934,-1.388636962890625
1731762679.405883,-7.491456994628906,3.5218706420898434,-1.4125789794921875
1731762679.4610634,-5.801150622558594,2.370259643554687,-2.7916391357421872
1731762679.5162168,-7.012616662597656,3.076549133300781,-4.944026428222656
1731762679.5713568,-7.903259680175781,1.8124106567382812,-6.818686328125
1731762679.626568,-10.66137999267578,0.93852705078125,-7.419630944824219
1731762679.6817267,-6.406883642578125,2.365471240234375,-6.658274816894531
1731762679.736871,-6.189011291503906,3.5027170288085934,-7.168239770507812
1731762679.7919943,-10.146626635742187,1.85790048828125,-7.711723547363281
1731762679.847142,-7.414842541503906,0.2825157958984375,-6.1626750732421876
1731762679.9021957,-4.656722229003906,3.967192150878906,-2.712630480957031
1731762679.9573958,-3.83072265625,4.2688615600585935,-1.0079588989257813
1731762680.01255,-10.965443603515624,4.204218115234375,-2.6240450195312497
1731762680.067734,-7.7596075805664055,0.8020575561523438,-1.8722656982421875
1731762680.1229115,-6.7277066650390625,4.4196962646484375,-1.3239935180664062
1731762680.1780682,-7.077260107421875,3.835511059570312,-2.123656872558594
1731762680.2332072,-7.074865905761718,2.3032219970703123,-2.748543505859375
1731762680.2883284,-6.811503723144531,2.2673089721679687,-4.031835595703125
1731762680.3434246,-6.777984899902344,2.626439221191406,-5.8226984375
1731762680.398612,-6.904877587890625,1.6519991455078125,-7.017405065917968
1731762680.4537938,-9.112331518554686,1.8722656982421875,-7.168239770507812
1731762680.5089443,-6.172251879882812,1.9752163696289062,-6.641515405273437
1731762680.5640502,-6.593631372070312,2.6240450195312497,-6.998251452636718
1731762680.6172438,-11.398794104003905,3.1651345947265623,-7.651868505859374
1731762680.6704032,-5.91846650390625,-0.9433154541015625,-6.0908490234374995
1731762680.723562,-4.517858532714843,3.9240965209960934,-2.418143676757812
1731762680.7767293,-6.6702458251953125,5.8610056640625,-1.7932570434570312
1731762680.8298748,-7.711723547363281,1.8698714965820311,-1.9871873779296874
1731762680.8831599,-10.165780249023436,3.4165257690429685,-2.602497204589844
1731762680.93633,-5.5641246582031245,2.877830395507812,-1.2832920898437499
1731762680.9894927,-9.011775048828124,4.062960217285156,-2.0757728393554684
1731762681.0426466,-6.263231542968749,2.3415292236328122,-1.6400281372070311
1731762681.0959487,-3.6439749267578123,3.191470812988281,-2.109291662597656
1731762681.1491497,-9.583989245605467,4.11802685546875,-6.53138212890625
1731762681.2035103,-6.3973068359375,0.0143652099609375,-6.924031201171875
1731762681.258778,-9.548076220703125,2.3822306518554686,-7.254431030273437
1731762681.314327,-6.658274816894531,2.9496564453125,-6.313509777832031
1731762681.370808,-6.193799694824218,2.214636535644531,-6.87614716796875
1731762681.4260745,-13.41950030517578,3.0693665283203124,-7.704540942382812
1731762681.4813354,-3.1675287963867187,-0.8667010009765624,-4.568136767578125
1731762681.5366085,-4.216189123535156,5.882553479003906,-2.5163059448242184
1731762681.5918603,-10.029310754394531,5.408501550292969,-2.5426421630859375
1731762681.6471143,-6.363788012695312,0.0143652099609375,-1.7717092285156248
1731762681.7025406,-8.647856396484375,4.84586416015625,-1.6136919189453125
1731762681.757699,-7.6997525390625,3.749319799804687,-1.5394716674804687
1731762681.8128767,-4.752490295410156,1.6735469604492186,-0.6440402465820312
1731762681.8680377,-6.459556079101562,4.53940634765625,-4.7189714721679685
1731762681.9232714,-10.939107385253905,2.8131869506835936,-6.552929943847656
1731762681.97848,-7.1586629638671875,-0.35673604736328124,-6.552929943847656
1731762682.0336626,-8.190563879394531,2.942473840332031,-6.4739212890625
1731762682.0887654,-5.523423229980469,2.91134921875,-6.301538769531249
1731762682.1439862,-7.582436657714843,1.7429788085937499,-8.13310303955078
1731762682.1991897,-11.671733093261718,2.6767174560546874,-7.4579381713867186
1731762682.2543788,-5.626373901367187,0.19393033447265623,-4.752490295410156
1731762682.3094943,-3.6942531616210936,4.350264416503906,-2.195482922363281
1731762682.3646603,-7.596801867675781,5.540182641601562,-2.0254946044921875
1731762682.4197755,-7.41244833984375,1.5251064575195312,-1.7860744384765623
1731762682.4749045,-8.755595471191405,3.0406361083984375,-2.3151930053710936
1731762682.5301409,-6.619967590332031,3.833116857910156,-2.1906945190429687
1731762682.5852547,-5.422866760253906,2.602497204589844,-2.31758720703125
1731762682.6403832,-6.330269189453125,2.6288334228515624,-5.501875415039062
1731762682.6955662,-11.135431921386719,2.741360900878906,-6.883329772949218
1731762682.7507784,-7.108384729003906,0.5482721801757812,-6.648698010253906
1731762682.8058794,-5.719747766113281,2.8227637573242186,-6.093243225097656
1731762682.8610017,-7.484274389648437,4.223371728515625,-6.610390783691406
1731762682.9161284,-9.739612353515625,1.2569558715820313,-5.985504150390625
1731762682.9716644,-4.429273071289062,0.44053310546874996,-6.282385156249999
1731762683.0268252,-5.312733483886719,4.465186096191406,-4.446032482910156
1731762683.0819345,-13.338097448730467,7.7787611938476555,-7.541735229492187
1731762683.137067,-7.510610607910156,-0.7110778930664062,-15.0164328125
1731762683.1923444,-11.470620153808593,4.3813890380859375,-0.13646949462890623
1731762683.247451,-6.567295153808593,3.323151904296875,-2.7341782958984373
1731762683.3025768,-5.758054992675781,1.898601916503906,-1.2928688964843749
1731762683.3577578,-6.507440112304687,3.347093920898437,-1.5418658691406248
1731762683.4129052,-7.723694555664062,3.181894006347656,-4.084508032226562
1731762683.4680588,-9.265560424804686,3.7924154296875,-8.884882360839843
1731762683.5231555,-6.6151791870117185,0.5506663818359374,-11.693280908203125
1731762683.5782626,-6.533776330566406,2.9185318237304685,-5.391742138671875
1731762683.6335058,-6.849810949707031,1.4149731811523436,-5.904101293945312
1731762683.6886804,-7.173028173828125,1.2306196533203124,-6.1076084350585935
1731762683.7438269,-9.797073193359374,2.319981408691406,-6.289567761230469
1731762683.797395,-8.990227233886719,2.9640216552734375,-5.4779333984375
1731762683.8508537,-6.2392895263671875,1.9512743530273435,-2.7557261108398436
1731762683.90424,-6.5385647338867185,2.616862414550781,-1.5873557006835937
1731762683.957615,-8.722076647949219,3.399766357421875,-2.281674182128906
1731762684.0109694,-8.161833459472655,2.224213342285156,-1.924938134765625
1731762684.0643215,-5.798756420898437,1.9608511596679685,-1.9201497314453124
1731762684.1177416,-7.074865905761718,1.7405846069335937,-1.9393033447265624
1731762684.1711166,-5.49708701171875,3.0837317382812497,-4.876988781738281
1731762684.2244449,-10.09395419921875,3.4069489624023435,-6.976703637695312
1731762684.2778556,-6.883329772949218,-0.14125789794921875,-6.308721374511719
1731762684.331639,-7.187393383789062,1.3766659545898436,-6.610390783691406
1731762684.385083,-7.2903440551757805,3.3159692993164063,-6.950367419433594
1731762684.438714,-6.720524060058593,2.365471240234375,-7.110778930664062
1731762684.49213,-9.672574707031249,0.7685387329101562,-6.9719152343749995
1731762684.545487,-8.200140686035155,1.2569558715820313,-5.839457849121094
1731762684.5988631,-3.23696064453125,1.7381904052734374,-2.91134921875
1731762684.6522548,-7.900865478515625,4.168305090332031,-2.4851813232421875
1731762684.7056217,-11.264718811035156,2.3678654418945313,-3.8187516479492185
1731762684.7589257,-5.6574985229492185,-0.239420166015625,-2.001552587890625
1731762684.8123157,-7.369352709960937,4.690241052246093,-1.8100164550781248
1731762684.86566,-8.350975390624999,3.047818713378906,-0.9552864624023437
1731762684.9190037,-1.1348515869140625,-0.181959326171875,-2.205059729003906
1731762684.9723816,-10.89122335205078,4.153939880371094,-6.385335827636719
1731762685.0257545,-8.32463917236328,1.6256629272460936,-7.038952880859375
1731762685.0791304,-7.058106494140625,0.2609679809570312,-6.155492468261718
1731762685.1324968,-8.240842114257813,2.501940734863281,-7.144297753906249
1731762685.1858723,-6.801926916503906,2.39420166015625,-7.196970190429687
1731762685.2392023,-11.671733093261718,1.6160861206054686,-6.749254479980468
1731762685.2925756,-4.704606262207031,1.455674609375,-4.735730883789063
1731762685.3459723,-7.058106494140625,2.559401574707031,-2.0829554443359375
1731762685.3994174,-6.974309436035155,3.7229835815429686,-2.473210314941406
1731762685.4528027,-8.556876733398436,1.9416975463867185,-0.7709329345703124
1731762685.5061622,-7.867346655273437,2.1595698974609374,-1.3407529296874998
1731762685.559519,-10.632649572753905,2.8945898071289062,-1.1372457885742187
1731762685.6129282,-5.130774157714844,2.5450363647460934,0.8068459594726562
1731762685.6663008,-2.6527754394531247,3.0741549316406247,-2.4564509033203126
1731762685.7196639,-11.267113012695312,3.1220389648437497,-5.578489868164062
1731762685.7730508,-5.9783215454101555,-0.16998831787109375,-6.3709706176757805
1731762685.826413,-10.342951171874999,1.9009961181640624,-7.077260107421875
1731762685.8797755,-6.998251452636718,2.0374656127929685,-6.833051538085937
1731762685.933176,-6.081272216796875,2.0781670410156248,-6.481103894042969
1731762685.9865856,-6.2584431396484375,1.6639701538085936,-6.275202551269531
1731762686.0399961,-12.061987963867187,2.147598889160156,-8.489839086914062
1731762686.0933435,-6.76122548828125,0.59376201171875,-6.8593877563476555
1731762686.146692,-4.587290380859375,1.5873557006835937,-3.0358477050781247
1731762686.2000582,-8.506598498535157,3.797203833007812,-1.9009961181640624
1731762686.2534075,-6.548141540527343,3.0885201416015624,-1.6903063720703124
1731762686.3067133,-9.627084875488281,2.01112939453125,-0.9504980590820312
1731762686.36003,-8.034940771484374,1.908178723144531,-0.7709329345703124
1731762686.4133754,-6.955155822753905,3.603273498535156,-0.7062894897460937
1731762686.4667323,-7.560888842773437,2.4899697265625,-0.028730419921875
1731762686.5201213,-2.85388837890625,1.3359645263671873,-3.31357509765625
1731762686.5734456,-11.738770739746093,3.1292215698242187,-6.007051965332031
1731762686.6267867,-8.614337573242187,1.905784521484375,-6.488286499023437
1731762686.680082,-7.050923889160156,0.97683427734375,-6.081272216796875
1731762686.7334173,-7.2903440551757805,2.31758720703125,-6.919242797851562
1731762686.7867134,-9.095572106933593,2.5139117431640625,-6.710947253417968
1731762686.840113,-5.954379528808594,0.7230489013671875,-6.351817004394531
1731762686.8936133,-12.449848632812499,2.583343591308594,-6.016628771972656
